Folder: tga_data_analysis/example/data (part 2)

File: SDb_2.txt
Time	Temperature	Weight	Weight	Heat Flow
min	°C	%	mg	mW
0.003		100.0132	5.6265
0.037		100.1295	5.6331
0.070	25.71	100.2356	5.6391	-22.279
0.103	26.03	100.2643	5.6407	-22.120
0.137	26.34	100.2616	5.6405	-21.974
0.170	26.65	100.2547	5.6401	-21.840
0.203	26.95	100.2412	5.6394	-21.713
0.237	27.24	100.2196	5.6382	-21.595
0.270	27.53	100.1950	5.6368	-21.486
0.303	27.81	100.1670	5.6352	-21.385
0.337	28.08	100.1361	5.6335	-21.287
0.370	28.35	100.1024	5.6316	-21.193
0.403	28.61	100.0662	5.6295	-21.103
0.437	28.86	100.0277	5.6274	-21.019
0.470	29.11	99.9872	5.6251	-20.937
0.503	29.35	99.9450	5.6227	-20.859
0.537	29.58	99.9014	5.6203	-20.782
0.570	29.81	99.8566	5.6177	-20.706
0.603	30.03	99.8108	5.6152	-20.631
0.637	30.25	99.7642	5.6125	-20.556
0.670	30.46	99.7170	5.6099	-20.482
0.703	30.67	99.6694	5.6072	-20.410
0.737	30.87	99.6215	5.6045	-20.338
0.770	31.07	99.5734	5.6018	-20.264
0.803	31.27	99.5255	5.5991	-20.191
0.837	31.47	99.4777	5.5964	-20.120
0.870	31.66	99.4302	5.5938	-20.048
0.903	31.85	99.3830	5.5911	-19.976
0.937	32.04	99.3361	5.5885	-19.904
0.970	32.23	99.2896	5.5858	-19.832
1.003	32.43	99.2437	5.5833	-19.759
1.037	32.63	99.1985	5.5807	-19.685
1.070	32.83	99.1540	5.5782	-19.606
1.103	33.03	99.1101	5.5757	-19.526
1.137	33.24	99.0669	5.5733	-19.445
1.170	33.45	99.0243	5.5709	-19.365
1.203	33.67	98.9821	5.5685	-19.283
1.237	33.89	98.9404	5.5662	-19.198
1.270	34.12	98.8992	5.5639	-19.108
1.303	34.35	98.8585	5.5616	-19.016
1.337	34.58	98.8182	5.5593	-18.923
1.370	34.82	98.7783	5.5571	-18.828
1.403	35.07	98.7387	5.5548	-18.732
1.437	35.32	98.6994	5.5526	-18.631
1.470	35.57	98.6605	5.5504	-18.528
1.503	35.83	98.6218	5.5483	-18.424
1.537	36.09	98.5834	5.5461	-18.316
1.570	36.36	98.5453	5.5440	-18.206
1.603	36.64	98.5076	5.5418	-18.094
1.637	36.92	98.4701	5.5397	-17.980
1.670	37.20	98.4328	5.5376	-17.866
1.703	37.49	98.3958	5.5356	-17.746
1.737	37.78	98.3591	5.5335	-17.625
1.770	38.08	98.3225	5.5314	-17.503
1.803	38.38	98.2861	5.5294	-17.378
1.837	38.69	98.2499	5.5274	-17.250
1.870	39.00	98.2140	5.5253	-17.120
1.903	39.32	98.1782	5.5233	-16.988
1.937	39.63	98.1427	5.5213	-16.858
1.970	39.96	98.1073	5.5193	-16.724
2.003	40.28	98.0721	5.5173	-16.587
2.037	40.61	98.0371	5.5154	-16.447
2.070	40.94	98.0023	5.5134	-16.306
2.103	41.28	97.9675	5.5115	-16.164
2.137	41.62	97.9329	5.5095	-16.019
2.170	41.96	97.8985	5.5076	-15.874
2.203	42.30	97.8642	5.5057	-15.727
2.237	42.65	97.8303	5.5037	-15.576
2.270	43.00	97.7966	5.5018	-15.425
2.303	43.35	97.7630	5.5000	-15.274
2.337	43.71	97.7294	5.4981	-15.122
2.370	44.06	97.6959	5.4962	-14.967
2.403	44.42	97.6626	5.4943	-14.809
2.437	44.78	97.6294	5.4924	-14.651
2.470	45.14	97.5965	5.4906	-14.494
2.503	45.50	97.5638	5.4888	-14.337
2.537	45.86	97.5313	5.4869	-14.179
2.570	46.23	97.4989	5.4851	-14.018
2.603	46.59	97.4667	5.4833	-13.856
2.637	46.96	97.4348	5.4815	-13.692
2.670	47.32	97.4031	5.4797	-13.526
2.703	47.69	97.3716	5.4779	-13.362
2.737	48.06	97.3403	5.4762	-13.196
2.770	48.43	97.3091	5.4744	-13.029
2.803	48.80	97.2783	5.4727	-12.862
2.837	49.16	97.2477	5.4710	-12.695
2.870	49.53	97.2173	5.4693	-12.527
2.903	49.90	97.1872	5.4676	-12.360
2.937	50.27	97.1573	5.4659	-12.193
2.970	50.64	97.1277	5.4642	-12.026
3.003	51.01	97.0984	5.4626	-11.858
3.037	51.38	97.0694	5.4609	-11.687
3.070	51.74	97.0406	5.4593	-11.520
3.103	52.11	97.0121	5.4577	-11.352
3.137	52.48	96.9838	5.4561	-11.183
3.170	52.84	96.9559	5.4545	-11.015
3.203	53.21	96.9282	5.4530	-10.847
3.237	53.58	96.9009	5.4515	-10.678
3.270	53.94	96.8739	5.4499	-10.511
3.303	54.31	96.8472	5.4484	-10.344
3.337	54.67	96.8209	5.4470	-10.178
3.370	55.03	96.7948	5.4455	-10.011
3.403	55.40	96.7691	5.4440	-9.845
3.437	55.76	96.7437	5.4426	-9.681
3.470	56.12	96.7188	5.4412	-9.514
3.503	56.48	96.6942	5.4398	-9.347
3.537	56.84	96.6700	5.4385	-9.181
3.570	57.20	96.6462	5.4371	-9.018
3.603	57.55	96.6227	5.4358	-8.857
3.637	57.91	96.5996	5.4345	-8.694
3.670	58.27	96.5769	5.4332	-8.532
3.703	58.62	96.5545	5.4320	-8.369
3.737	58.98	96.5325	5.4307	-8.207
3.770	59.33	96.5109	5.4295	-8.046
3.803	59.69	96.4897	5.4283	-7.888
3.837	60.04	96.4689	5.4272	-7.731
3.870	60.39	96.4484	5.4260	-7.573
3.903	60.74	96.4283	5.4249	-7.415
3.937	61.09	96.4084	5.4237	-7.257
3.970	61.45	96.3889	5.4227	-7.103
4.003	61.80	96.3698	5.4216	-6.949
4.037	62.14	96.3512	5.4205	-6.797
4.070	62.49	96.3330	5.4195	-6.645
4.103	62.84	96.3151	5.4185	-6.493
4.137	63.19	96.2976	5.4175	-6.342
4.170	63.53	96.2804	5.4165	-6.191
4.203	63.88	96.2635	5.4156	-6.043
4.237	64.23	96.2470	5.4147	-5.897
4.270	64.57	96.2308	5.4138	-5.752
4.303	64.92	96.2151	5.4129	-5.607
4.337	65.26	96.1997	5.4120	-5.464
4.370	65.60	96.1846	5.4112	-5.319
4.403	65.95	96.1699	5.4103	-5.176
4.437	66.29	96.1555	5.4095	-5.033
4.470	66.63	96.1414	5.4087	-4.891
4.503	66.98	96.1276	5.4080	-4.752
4.537	67.32	96.1141	5.4072	-4.614
4.570	67.66	96.1010	5.4065	-4.476
4.603	68.00	96.0882	5.4057	-4.339
4.637	68.35	96.0757	5.4050	-4.204
4.670	68.69	96.0634	5.4043	-4.070
4.703	69.03	96.0514	5.4037	-3.936
4.737	69.37	96.0396	5.4030	-3.802
4.770	69.71	96.0281	5.4024	-3.670
4.803	70.05	96.0169	5.4017	-3.538
4.837	70.39	96.0060	5.4011	-3.409
4.870	70.73	95.9953	5.4005	-3.278
4.903	71.07	95.9848	5.3999	-3.150
4.937	71.41	95.9747	5.3993	-3.021
4.970	71.75	95.9648	5.3988	-2.893
5.003	72.09	95.9551	5.3982	-2.767
5.037	72.43	95.9456	5.3977	-2.646
5.070	72.77	95.9364	5.3972	-2.527
5.103	73.11	95.9275	5.3967	-2.402
5.137	73.45	95.9187	5.3962	-2.278
5.170	73.79	95.9101	5.3957	-2.157
5.203	74.14	95.9017	5.3952	-2.037
5.237	74.48	95.8936	5.3948	-1.919
5.270	74.82	95.8856	5.3943	-1.801
5.303	75.16	95.8778	5.3939	-1.685
5.337	75.50	95.8702	5.3935	-1.568
5.370	75.84	95.8628	5.3931	-1.451
5.403	76.18	95.8556	5.3926	-1.334
5.437	76.52	95.8487	5.3923	-1.221
5.470	76.86	95.8420	5.3919	-1.108
5.503	77.20	95.8353	5.3915	-0.996
5.537	77.54	95.8287	5.3911	-0.885
5.570	77.88	95.8224	5.3908	-0.771
5.603	78.23	95.8162	5.3904	-0.662
5.637	78.57	95.8102	5.3901	-0.552
5.670	78.91	95.8043	5.3898	-0.443
5.703	79.25	95.7986	5.3894	-0.334
5.737	79.60	95.7931	5.3891	-0.227
5.770	79.94	95.7877	5.3888	-0.119
5.803	80.28	95.7825	5.3885	-0.012
5.837	80.62	95.7774	5.3883	0.094
5.870	80.97	95.7725	5.3880	0.196
5.903	81.31	95.7676	5.3877	0.298
5.937	81.65	95.7628	5.3874	0.400
5.970	82.00	95.7579	5.3872	0.503
6.003	82.34	95.7533	5.3869	0.603
6.037	82.69	95.7489	5.3866	0.704
6.070	83.03	95.7447	5.3864	0.806
6.103	83.37	95.7405	5.3862	0.907
6.137	83.72	95.7364	5.3859	1.006
6.170	84.06	95.7325	5.3857	1.105
6.203	84.41	95.7287	5.3855	1.206
6.237	84.75	95.7249	5.3853	1.305
6.270	85.09	95.7213	5.3851	1.402
6.303	85.44	95.7177	5.3849	1.500
6.337	85.79	95.7142	5.3847	1.599
6.370	86.13	95.7107	5.3845	1.694
6.403	86.47	95.7073	5.3843	1.788
6.437	86.82	95.7040	5.3841	1.882
6.470	87.16	95.7009	5.3839	1.977
6.503	87.51	95.6979	5.3838	2.070
6.537	87.86	95.6949	5.3836	2.162
6.570	88.20	95.6919	5.3834	2.254
6.603	88.55	95.6891	5.3833	2.346
6.637	88.89	95.6863	5.3831	2.438
6.670	89.24	95.6835	5.3830	2.528
6.703	89.58	95.6808	5.3828	2.617
6.737	89.93	95.6781	5.3827	2.705
6.770	90.27	95.6755	5.3825	2.796
6.803	90.62	95.6729	5.3824	2.887
6.837	90.96	95.6705	5.3822	2.975
6.870	91.31	95.6682	5.3821	3.063
6.903	91.66	95.6659	5.3820	3.149
6.937	92.00	95.6638	5.3819	3.234
6.970	92.35	95.6617	5.3817	3.318
7.003	92.69	95.6595	5.3816	3.402
7.037	93.04	95.6575	5.3815	3.488
[...]
219.320	949.71	0.7591	0.0427	36.005
219.428	949.71	0.7584	0.0427	36.013
219.537	949.71	0.7575	0.0426	36.023
219.645	949.71	0.7566	0.0426	36.038
219.753	949.71	0.7560	0.0425	36.052
219.862	949.71	0.7555	0.0425	36.060
219.970	949.71	0.7548	0.0425	36.072
220.078	949.71	0.7541	0.0424	36.087
220.187	949.71	0.7534	0.0424	36.106
220.295	949.71	0.7525	0.0423	36.129
220.403	949.71	0.7517	0.0423	36.149
220.512	949.71	0.7511	0.0423	36.165
220.620	949.71	0.7506	0.0422	36.178
220.728	949.71	0.7498	0.0422	36.184
220.837	949.71	0.7487	0.0421	36.191
220.945	949.71	0.7479	0.0421	36.194
221.053	949.71	0.7468	0.0420	36.197
221.162	949.71	0.7458	0.0420	36.206
221.270	949.71	0.7451	0.0419	36.221
221.378	949.71	0.7444	0.0419	36.233
221.487	949.71	0.7437	0.0418	36.244
221.595	949.71	0.7427	0.0418	36.258
221.703	949.71	0.7420	0.0417	36.279
221.812	949.71	0.7413	0.0417	36.298
221.920	949.71	0.7408	0.0417	36.311
222.028	949.71	0.7400	0.0416	36.322
222.137	949.71	0.7395	0.0416	36.334
222.245	949.71	0.7389	0.0416	36.344
222.353	949.71	0.7384	0.0415	36.349
222.462	949.71	0.7374	0.0415	36.349
222.570	949.71	0.7368	0.0415	36.353
222.678	949.71	0.7363	0.0414	36.364
222.787	949.71	0.7354	0.0414	36.378
222.895	949.71	0.7347	0.0413	36.391
223.003	949.71	0.7340	0.0413	36.408
223.112	949.71	0.7334	0.0413	36.415
223.220	949.71	0.7324	0.0412	36.428
223.328	949.71	0.7313	0.0411	36.446
223.437	949.71	0.7307	0.0411	36.453
223.545	949.71	0.7300	0.0411	36.464
223.653	949.71	0.7293	0.0410	36.470
223.762	949.72	0.7286	0.0410	36.478
223.870	949.72	0.7276	0.0409	36.494
223.978	949.72	0.7271	0.0409	36.508
224.087	949.71	0.7264	0.0409	36.524
224.195	949.71	0.7254	0.0408	36.544
224.303	949.71	0.7245	0.0408	36.567
224.412	949.71	0.7237	0.0407	36.584
224.520	949.72	0.7230	0.0407	36.597
224.628	949.72	0.7222	0.0406	36.607
224.737	949.72	0.7214	0.0406	36.623
224.845	949.72	0.7205	0.0405	36.632
224.953	949.72	0.7196	0.0405	36.645
225.062	949.72	0.7188	0.0404	36.654
225.170	949.72	0.7180	0.0404	36.663
225.278	949.72	0.7174	0.0404	36.669
225.387	949.72	0.7164	0.0403	36.683
225.495	949.72	0.7156	0.0403	36.713
225.603	949.72	0.7149	0.0402	36.730
225.712	949.72	0.7142	0.0402	36.736
225.820	949.72	0.7133	0.0401	36.744
225.928	949.72	0.7124	0.0401	36.754
226.037	949.72	0.7117	0.0400	36.761
226.145	949.72	0.7112	0.0400	36.768
226.253	949.72	0.7106	0.0400	36.781
226.362	949.72	0.7098	0.0399	36.805
226.470	949.72	0.7090	0.0399	36.823
226.578	949.72	0.7081	0.0398	36.842
226.687	949.72	0.7070	0.0398	36.849
226.795	949.72	0.7063	0.0397	36.853
226.903	949.72	0.7059	0.0397	36.867
227.012	949.72	0.7053	0.0397	36.879
227.120	949.72	0.7046	0.0396	36.892
227.228	949.72	0.7041	0.0396	36.896
227.337	949.72	0.7036	0.0396	36.895
227.445	949.72	0.7030	0.0395	36.902
227.553	949.72	0.7021	0.0395	36.921
227.662	949.72	0.7014	0.0395	36.937
227.770	949.72	0.7003	0.0394	36.950
227.878	949.72	0.6993	0.0393	36.963
227.987	949.72	0.6985	0.0393	36.969
228.095	949.72	0.6978	0.0393	36.986
228.203	949.72	0.6968	0.0392	37.003
228.312	949.72	0.6959	0.0392	37.009
228.420	949.72	0.6950	0.0391	37.019
228.528	949.72	0.6943	0.0391	37.028
228.637	949.72	0.6935	0.0390	37.037
228.745	949.72	0.6928	0.0390	37.060
228.853	949.72	0.6922	0.0389	37.074
228.962	949.72	0.6916	0.0389	37.089
229.070	949.72	0.6910	0.0389	37.099
229.178	949.72	0.6902	0.0388	37.110
229.287	949.72	0.6895	0.0388	37.119
229.395	949.72	0.6888	0.0387	37.135
229.503	949.72	0.6880	0.0387	37.152
229.612	949.73	0.6872	0.0387	37.170
229.720	949.72	0.6862	0.0386	37.180
229.828	949.73	0.6853	0.0386	37.192
229.937	949.73	0.6844	0.0385	37.193
230.045	949.73	0.6836	0.0385	37.201
230.153	949.73	0.6828	0.0384	37.215
230.245		0.6819	0.0384