Folder: tga_data_analysis/example/data

Note: README.md
# PyTGA - Thermogravimetric Analysis in Python

## Overview
PyTGA is a Python module designed for conducting and analyzing Thermogravimetric Analysis (TGA) experiments. It offers tools for loading, processing, and analyzing TGA data, focusing on proximate and oxidation analysis, solid distillation analysis, and deconvolution analysis.

## Features
- **Data Loading**: Supports loading TGA data from files.
- **Proximate Analysis**: Calculates moisture, ash, and volatile matter.
- **Oxidation Analysis**: Computes Ti, Tp, Tb, etc.
- **Solid Distillation Analysis**: Analyzes solid distillation over time.
- **Deconvolution Analysis**: Deconvolutes TGA curves for peak analysis.
- **Plotting and Visualization**: Functions for TGA data visualization.

File: SDa_2.txt
Time	Temperature	Weight	Weight	Heat Flow
min	Â°C	%	mg	mW
0.003		99.9942	10.8796
0.037		99.9900	10.8792
0.070	25.66	100.0020	10.8805	-22.696
0.103	25.98	100.0015	10.8804	-22.535
0.137	26.29	99.9970	10.8799	-22.387
0.170	26.60	99.9906	10.8792	-22.249
0.203	26.90	99.9824	10.8783	-22.124
0.237	27.19	99.9726	10.8773	-22.008
0.270	27.47	99.9610	10.8760	-21.900
0.303	27.75	99.9479	10.8746	-21.801
0.337	28.02	99.9332	10.8730	-21.708
0.370	28.28	99.9169	10.8712	-21.618
0.403	28.54	99.8991	10.8693	-21.536
0.437	28.79	99.8800	10.8672	-21.460
0.470	29.03	99.8597	10.8650	-21.389
0.503	29.27	99.8383	10.8627	-21.320
0.537	29.50	99.8160	10.8602	-21.252
0.570	29.72	99.7927	10.8577	-21.190
0.603	29.94	99.7686	10.8551	-21.130
0.637	30.15	99.7438	10.8524	-21.070
0.670	30.36	99.7184	10.8496	-21.012
0.703	30.56	99.6924	10.8468	-20.956
0.737	30.76	99.6659	10.8439	-20.900
0.770	30.96	99.6389	10.8410	-20.845
0.803	31.15	99.6117	10.8380	-20.790
0.837	31.35	99.5841	10.8350	-20.738
0.870	31.53	99.5563	10.8320	-20.687
0.903	31.72	99.5282	10.8289	-20.636
0.937	31.91	99.4999	10.8258	-20.586
0.970	32.10	99.4716	10.8228	-20.537
1.003	32.30	99.4432	10.8197	-20.487
1.037	32.49	99.4149	10.8166	-20.440
1.070	32.69	99.3864	10.8135	-20.394
1.103	32.89	99.3580	10.8104	-20.345
1.137	33.10	99.3297	10.8073	-20.292
1.170	33.31	99.3013	10.8042	-20.238
1.203	33.52	99.2730	10.8011	-20.184
1.237	33.74	99.2446	10.7981	-20.128
1.270	33.96	99.2161	10.7950	-20.071
1.303	34.19	99.1877	10.7919	-20.013
1.337	34.42	99.1592	10.7888	-19.950
1.370	34.66	99.1305	10.7856	-19.884
1.403	34.90	99.1019	10.7825	-19.815
1.437	35.15	99.0732	10.7794	-19.745
1.470	35.40	99.0445	10.7763	-19.673
1.503	35.65	99.0156	10.7731	-19.598
1.537	35.92	98.9866	10.7700	-19.518
1.570	36.18	98.9575	10.7668	-19.439
1.603	36.45	98.9283	10.7636	-19.357
1.637	36.73	98.8989	10.7604	-19.271
1.670	37.01	98.8694	10.7572	-19.183
1.703	37.29	98.8397	10.7540	-19.094
1.737	37.58	98.8100	10.7508	-19.002
1.770	37.88	98.7801	10.7475	-18.908
1.803	38.18	98.7501	10.7442	-18.811
1.837	38.48	98.7199	10.7410	-18.714
1.870	38.79	98.6896	10.7377	-18.615
1.903	39.10	98.6592	10.7344	-18.513
1.937	39.41	98.6286	10.7310	-18.412
1.970	39.73	98.5979	10.7277	-18.307
2.003	40.05	98.5670	10.7243	-18.200
2.037	40.38	98.5360	10.7210	-18.093
2.070	40.71	98.5048	10.7176	-17.987
2.103	41.04	98.4736	10.7142	-17.880
2.137	41.37	98.4422	10.7107	-17.766
2.170	41.71	98.4106	10.7073	-17.651
2.203	42.05	98.3789	10.7039	-17.538
2.237	42.39	98.3470	10.7004	-17.424
2.270	42.74	98.3150	10.6969	-17.308
2.303	43.09	98.2829	10.6934	-17.191
2.337	43.43	98.2506	10.6899	-17.074
2.370	43.79	98.2182	10.6864	-16.955
2.403	44.14	98.1856	10.6828	-16.835
2.437	44.49	98.1529	10.6793	-16.711
2.470	44.85	98.1201	10.6757	-16.587
2.503	45.20	98.0872	10.6721	-16.464
2.537	45.56	98.0541	10.6685	-16.339
2.570	45.92	98.0210	10.6649	-16.212
2.603	46.28	97.9879	10.6613	-16.082
2.637	46.64	97.9547	10.6577	-15.954
2.670	47.01	97.9214	10.6541	-15.824
2.703	47.37	97.8880	10.6504	-15.692
2.737	47.73	97.8545	10.6468	-15.560
2.770	48.09	97.8210	10.6432	-15.428
2.803	48.46	97.7874	10.6395	-15.295
2.837	48.82	97.7537	10.6358	-15.160
2.870	49.19	97.7199	10.6322	-15.024
2.903	49.55	97.6862	10.6285	-14.888
2.937	49.91	97.6524	10.6248	-14.753
2.970	50.28	97.6187	10.6211	-14.615
3.003	50.64	97.5849	10.6175	-14.476
3.037	51.01	97.5511	10.6138	-14.336
3.070	51.37	97.5174	10.6101	-14.197
3.103	51.74	97.4837	10.6065	-14.057
3.137	52.10	97.4501	10.6028	-13.918
3.170	52.46	97.4166	10.5992	-13.777
3.203	52.82	97.3832	10.5955	-13.638
3.237	53.19	97.3498	10.5919	-13.496
3.270	53.55	97.3164	10.5883	-13.351
3.303	53.91	97.2832	10.5847	-13.208
3.337	54.27	97.2501	10.5810	-13.066
3.370	54.63	97.2171	10.5775	-12.922
3.403	54.99	97.1841	10.5739	-12.776
3.437	55.35	97.1513	10.5703	-12.630
3.470	55.71	97.1186	10.5667	-12.485
3.503	56.07	97.0861	10.5632	-12.340
3.537	56.42	97.0538	10.5597	-12.196
3.570	56.78	97.0217	10.5562	-12.052
3.603	57.13	96.9898	10.5527	-11.906
3.637	57.49	96.9581	10.5493	-11.759
3.670	57.84	96.9266	10.5458	-11.614
3.703	58.20	96.8953	10.5424	-11.466
3.737	58.55	96.8643	10.5391	-11.320
3.770	58.90	96.8334	10.5357	-11.175
3.803	59.25	96.8027	10.5324	-11.032
3.837	59.61	96.7723	10.5291	-10.886
3.870	59.96	96.7421	10.5258	-10.740
3.903	60.31	96.7122	10.5225	-10.592
3.937	60.66	96.6825	10.5193	-10.444
3.970	61.01	96.6530	10.5161	-10.296
4.003	61.36	96.6239	10.5129	-10.148
4.037	61.70	96.5950	10.5098	-10.000
4.070	62.05	96.5663	10.5067	-9.856
4.103	62.40	96.5379	10.5036	-9.712
4.137	62.75	96.5098	10.5005	-9.567
4.170	63.09	96.4819	10.4975	-9.422
4.203	63.44	96.4543	10.4945	-9.277
4.237	63.78	96.4271	10.4915	-9.131
4.270	64.13	96.4001	10.4886	-8.985
4.303	64.47	96.3733	10.4857	-8.840
4.337	64.82	96.3469	10.4828	-8.698
4.370	65.16	96.3207	10.4799	-8.554
4.403	65.51	96.2948	10.4771	-8.409
4.437	65.85	96.2691	10.4743	-8.267
4.470	66.19	96.2437	10.4716	-8.125
4.503	66.54	96.2187	10.4688	-7.980
4.537	66.88	96.1939	10.4661	-7.837
4.570	67.22	96.1694	10.4635	-7.694
4.603	67.57	96.1452	10.4608	-7.553
4.637	67.91	96.1214	10.4582	-7.412
4.670	68.25	96.0978	10.4557	-7.269
4.703	68.60	96.0744	10.4531	-7.130
4.737	68.94	96.0514	10.4506	-6.990
4.770	69.28	96.0286	10.4481	-6.853
4.803	69.62	96.0061	10.4457	-6.717
4.837	69.96	95.9838	10.4433	-6.582
4.870	70.31	95.9618	10.4409	-6.443
4.903	70.65	95.9400	10.4385	-6.303
4.937	70.99	95.9185	10.4362	-6.166
4.970	71.33	95.8973	10.4339	-6.028
5.003	71.67	95.8764	10.4316	-5.891
5.037	72.02	95.8558	10.4293	-5.754
5.070	72.36	95.8355	10.4271	-5.619
5.103	72.70	95.8153	10.4249	-5.486
5.137	73.04	95.7955	10.4228	-5.354
5.170	73.39	95.7759	10.4206	-5.224
5.203	73.73	95.7566	10.4185	-5.088
5.237	74.07	95.7375	10.4165	-4.954
5.270	74.42	95.7188	10.4144	-4.822
5.303	74.76	95.7002	10.4124	-4.693
5.337	75.10	95.6819	10.4104	-4.564
5.370	75.44	95.6638	10.4085	-4.433
5.403	75.79	95.6460	10.4065	-4.303
5.437	76.13	95.6284	10.4046	-4.175
5.470	76.47	95.6111	10.4027	-4.047
5.503	76.82	95.5940	10.4009	-3.921
5.537	77.16	95.5771	10.3990	-3.794
5.570	77.51	95.5605	10.3972	-3.667
5.603	77.85	95.5442	10.3954	-3.541
5.637	78.20	95.5280	10.3937	-3.417
5.670	78.54	95.5121	10.3919	-3.292
5.703	78.89	95.4964	10.3902	-3.169
5.737	79.23	95.4808	10.3885	-3.046
5.770	79.57	95.4656	10.3869	-2.924
5.803	79.92	95.4505	10.3852	-2.802
5.837	80.27	95.4357	10.3836	-2.682
5.870	80.61	95.4210	10.3820	-2.559
5.903	80.96	95.4066	10.3805	-2.439
5.937	81.30	95.3924	10.3789	-2.320
5.970	81.65	95.3785	10.3774	-2.200
6.003	81.99	95.3647	10.3759	-2.082
6.037	82.34	95.3512	10.3744	-1.963
6.070	82.69	95.3378	10.3730	-1.845
6.103	83.03	95.3246	10.3716	-1.729
6.137	83.38	95.3117	10.3701	-1.615
6.170	83.73	95.2989	10.3688	-1.500
6.203	84.07	95.2863	10.3674	-1.385
6.237	84.42	95.2739	10.3660	-1.269
6.270	84.77	95.2617	10.3647	-1.151
6.303	85.12	95.2497	10.3634	-1.035
6.337	85.46	95.2379	10.3621	-0.922
6.370	85.81	95.2263	10.3609	-0.809
6.403	86.16	95.2149	10.3596	-0.697
6.437	86.50	95.2037	10.3584	-0.587
6.470	86.85	95.1926	10.3572	-0.476
6.503	87.20	95.1817	10.3560	-0.364
6.537	87.55	95.1709	10.3548	-0.254
6.570	87.90	95.1603	10.3537	-0.144
6.603	88.24	95.1500	10.3525	-0.037
6.637	88.59	95.1397	10.3514	0.069
6.670	88.94	95.1297	10.3503	0.176
6.703	89.29	95.1198	10.3493	0.285
6.737	89.63	95.1100	10.3482	0.392
6.770	89.98	95.1005	10.3472	0.498
6.803	90.33	95.0911	10.3461	0.603
[...]
219.153	949.68	-0.3638	-0.0396	34.550
219.270	949.67	-0.3641	-0.0396	34.540
219.387	949.67	-0.3646	-0.0397	34.542
219.503	949.67	-0.3650	-0.0397	34.538
219.620	949.67	-0.3653	-0.0397	34.540
219.737	949.67	-0.3657	-0.0398	34.542
219.853	949.67	-0.3660	-0.0398	34.543
219.970	949.67	-0.3664	-0.0399	34.545
220.087	949.67	-0.3666	-0.0399	34.549
220.203	949.67	-0.3670	-0.0399	34.551
220.320	949.67	-0.3673	-0.0400	34.552
220.437	949.67	-0.3676	-0.0400	34.558
220.553	949.67	-0.3678	-0.0400	34.564
220.670	949.67	-0.3681	-0.0401	34.564
220.787	949.67	-0.3685	-0.0401	34.573
220.903	949.67	-0.3689	-0.0401	34.573
221.020	949.67	-0.3692	-0.0402	34.564
221.137	949.67	-0.3696	-0.0402	34.569
221.253	949.67	-0.3700	-0.0403	34.565
221.370	949.67	-0.3703	-0.0403	34.570
221.487	949.67	-0.3707	-0.0403	34.590
221.603	949.67	-0.3709	-0.0404	34.594
221.720	949.67	-0.3714	-0.0404	34.587
221.837	949.67	-0.3719	-0.0405	34.585
221.953	949.67	-0.3724	-0.0405	34.602
222.070	949.67	-0.3728	-0.0406	34.613
222.187	949.67	-0.3732	-0.0406	34.630
222.303	949.67	-0.3736	-0.0407	34.631
222.420	949.67	-0.3740	-0.0407	34.634
222.537	949.67	-0.3744	-0.0407	34.640
222.653	949.67	-0.3746	-0.0408	34.644
222.770	949.67	-0.3748	-0.0408	34.645
222.887	949.67	-0.3751	-0.0408	34.652
223.003	949.67	-0.3755	-0.0409	34.655
223.120	949.67	-0.3758	-0.0409	34.655
223.237	949.67	-0.3763	-0.0409	34.664
223.353	949.67	-0.3767	-0.0410	34.669
223.470	949.67	-0.3772	-0.0410	34.683
223.587	949.67	-0.3774	-0.0411	34.690
223.703	949.67	-0.3777	-0.0411	34.695
223.820	949.67	-0.3781	-0.0411	34.694
223.937	949.67	-0.3783	-0.0412	34.699
224.053	949.67	-0.3785	-0.0412	34.718
224.170	949.67	-0.3788	-0.0412	34.728
224.287	949.67	-0.3790	-0.0412	34.724
224.403	949.67	-0.3793	-0.0413	34.725
224.520	949.67	-0.3797	-0.0413	34.727
224.637	949.67	-0.3801	-0.0414	34.734
224.753	949.67	-0.3804	-0.0414	34.740
224.870	949.67	-0.3809	-0.0414	34.751
224.987	949.67	-0.3813	-0.0415	34.759
225.103	949.67	-0.3818	-0.0415	34.777
225.220	949.67	-0.3822	-0.0416	34.783
225.337	949.67	-0.3826	-0.0416	34.781
225.453	949.67	-0.3830	-0.0417	34.792
225.570	949.67	-0.3833	-0.0417	34.801
225.687	949.67	-0.3837	-0.0417	34.803
225.803	949.67	-0.3841	-0.0418	34.809
225.920	949.67	-0.3844	-0.0418	34.824
226.037	949.67	-0.3848	-0.0419	34.847
226.153	949.67	-0.3850	-0.0419	34.853
226.270	949.67	-0.3852	-0.0419	34.854
226.387	949.67	-0.3856	-0.0420	34.855
226.503	949.67	-0.3859	-0.0420	34.858
226.620	949.67	-0.3862	-0.0420	34.859
226.737	949.67	-0.3866	-0.0421	34.876
226.853	949.67	-0.3869	-0.0421	34.879
226.970	949.67	-0.3872	-0.0421	34.877
227.087	949.67	-0.3876	-0.0422	34.875
227.203	949.67	-0.3879	-0.0422	34.877
227.320	949.67	-0.3882	-0.0422	34.885
227.437	949.67	-0.3888	-0.0423	34.895
227.553	949.67	-0.3893	-0.0424	34.899
227.670	949.67	-0.3897	-0.0424	34.899
227.787	949.67	-0.3901	-0.0424	34.913
227.903	949.67	-0.3905	-0.0425	34.915
228.020	949.67	-0.3908	-0.0425	34.914
228.137	949.67	-0.3911	-0.0426	34.916
228.253	949.67	-0.3915	-0.0426	34.925
228.370	949.67	-0.3918	-0.0426	34.935
228.487	949.67	-0.3923	-0.0427	34.949
228.603	949.67	-0.3927	-0.0427	34.954
228.720	949.67	-0.3931	-0.0428	34.958
228.837	949.67	-0.3934	-0.0428	34.964
228.953	949.67	-0.3938	-0.0428	34.973
229.070	949.67	-0.3943	-0.0429	34.977
229.187	949.67	-0.3948	-0.0430	34.980
229.303	949.67	-0.3950	-0.0430	34.986
229.420	949.67	-0.3953	-0.0430	34.992
229.537	949.67	-0.3956	-0.0430	35.005
229.653	949.67	-0.3959	-0.0431	35.029
229.770	949.67	-0.3962	-0.0431	35.046
229.887	949.67	-0.3966	-0.0432	35.048
230.003	949.67	-0.3970	-0.0432	35.054
230.120	949.67	-0.3973	-0.0432	35.057
230.237		-0.3975	-0.0432
230.245		-0.3975	-0.0432

File: SDa_3.txt
Time	Temperature	Weight	Weight	Heat Flow
min	°C	%	mg	mW
0.003		100.0155	8.2853
0.037		100.0926	8.2917
0.070	26.64	100.1326	8.2950	-22.488
0.103	26.94	100.1251	8.2944	-22.323
0.137	27.24	100.1126	8.2933	-22.175
0.170	27.54	100.0988	8.2922	-22.040
0.203	27.82	100.0838	8.2909	-21.919
0.237	28.10	100.0675	8.2896	-21.808
0.270	28.37	100.0499	8.2881	-21.704
0.303	28.64	100.0311	8.2866	-21.606
0.337	28.90	100.0109	8.2849	-21.515
0.370	29.15	99.9893	8.2831	-21.431
0.403	29.40	99.9663	8.2812	-21.352
0.437	29.64	99.9421	8.2792	-21.276
0.470	29.87	99.9168	8.2771	-21.205
0.503	30.09	99.8904	8.2749	-21.137
0.537	30.31	99.8630	8.2727	-21.073
0.570	30.53	99.8347	8.2703	-21.010
0.603	30.74	99.8057	8.2679	-20.950
0.637	30.95	99.7761	8.2655	-20.890
0.670	31.15	99.7459	8.2630	-20.832
0.703	31.35	99.7152	8.2604	-20.774
0.737	31.54	99.6840	8.2578	-20.718
0.770	31.73	99.6524	8.2552	-20.662
0.803	31.92	99.6207	8.2526	-20.608
0.837	32.11	99.5886	8.2499	-20.554
0.870	32.30	99.5563	8.2473	-20.503
0.903	32.49	99.5239	8.2446	-20.450
0.937	32.68	99.4914	8.2419	-20.399
0.970	32.88	99.4589	8.2392	-20.348
1.003	33.08	99.4265	8.2365	-20.299
1.037	33.28	99.3940	8.2338	-20.249
1.070	33.48	99.3617	8.2311	-20.197
1.103	33.69	99.3293	8.2285	-20.146
1.137	33.90	99.2970	8.2258	-20.093
1.170	34.12	99.2647	8.2231	-20.034
1.203	34.34	99.2325	8.2204	-19.976
1.237	34.57	99.2004	8.2178	-19.915
1.270	34.80	99.1682	8.2151	-19.852
1.303	35.03	99.1360	8.2124	-19.785
1.337	35.27	99.1039	8.2098	-19.715
1.370	35.52	99.0717	8.2071	-19.642
1.403	35.77	99.0394	8.2044	-19.567
1.437	36.02	99.0070	8.2017	-19.487
1.470	36.28	98.9745	8.1991	-19.404
1.503	36.55	98.9419	8.1964	-19.320
1.537	36.82	98.9093	8.1937	-19.238
1.570	37.09	98.8767	8.1910	-19.151
1.603	37.37	98.8439	8.1882	-19.060
1.637	37.66	98.8110	8.1855	-18.966
1.670	37.95	98.7780	8.1828	-18.871
1.703	38.24	98.7449	8.1800	-18.773
1.737	38.54	98.7117	8.1773	-18.671
1.770	38.84	98.6785	8.1745	-18.565
1.803	39.15	98.6452	8.1718	-18.460
1.837	39.46	98.6118	8.1690	-18.354
1.870	39.77	98.5784	8.1662	-18.246
1.903	40.09	98.5448	8.1635	-18.134
1.937	40.41	98.5112	8.1607	-18.023
1.970	40.74	98.4776	8.1579	-17.911
2.003	41.06	98.4439	8.1551	-17.796
2.037	41.39	98.4101	8.1523	-17.681
2.070	41.73	98.3762	8.1495	-17.564
2.103	42.07	98.3423	8.1467	-17.443
2.137	42.41	98.3084	8.1439	-17.322
2.170	42.75	98.2745	8.1411	-17.197
2.203	43.09	98.2405	8.1383	-17.073
2.237	43.44	98.2065	8.1354	-16.948
2.270	43.79	98.1725	8.1326	-16.821
2.303	44.14	98.1384	8.1298	-16.693
2.337	44.50	98.1043	8.1270	-16.562
2.370	44.85	98.0701	8.1241	-16.430
2.403	45.21	98.0358	8.1213	-16.295
2.437	45.57	98.0016	8.1185	-16.158
2.470	45.93	97.9675	8.1156	-16.022
2.503	46.29	97.9333	8.1128	-15.885
2.537	46.65	97.8993	8.1100	-15.747
2.570	47.01	97.8652	8.1072	-15.608
2.603	47.38	97.8311	8.1043	-15.467
2.637	47.74	97.7971	8.1015	-15.325
2.670	48.10	97.7631	8.0987	-15.183
2.703	48.47	97.7292	8.0959	-15.041
2.737	48.83	97.6953	8.0931	-14.897
2.770	49.20	97.6615	8.0903	-14.751
2.803	49.57	97.6277	8.0875	-14.605
2.837	49.93	97.5940	8.0847	-14.459
2.870	50.30	97.5604	8.0819	-14.310
2.903	50.66	97.5268	8.0791	-14.160
2.937	51.03	97.4933	8.0764	-14.010
2.970	51.39	97.4600	8.0736	-13.861
3.003	51.76	97.4268	8.0708	-13.712
3.037	52.13	97.3937	8.0681	-13.563
3.070	52.49	97.3607	8.0654	-13.413
3.103	52.86	97.3280	8.0627	-13.261
3.137	53.22	97.2955	8.0600	-13.108
3.170	53.58	97.2631	8.0573	-12.956
3.203	53.95	97.2308	8.0546	-12.803
3.237	54.31	97.1987	8.0520	-12.650
3.270	54.67	97.1669	8.0493	-12.499
3.303	55.03	97.1352	8.0467	-12.348
3.337	55.39	97.1037	8.0441	-12.193
3.370	55.75	97.0725	8.0415	-12.039
3.403	56.11	97.0415	8.0389	-11.884
3.437	56.47	97.0107	8.0364	-11.730
3.470	56.83	96.9802	8.0338	-11.577
3.503	57.19	96.9499	8.0313	-11.427
3.537	57.55	96.9199	8.0289	-11.273
3.570	57.90	96.8901	8.0264	-11.120
3.603	58.26	96.8606	8.0239	-10.967
3.637	58.61	96.8313	8.0215	-10.814
3.670	58.97	96.8024	8.0191	-10.661
3.703	59.32	96.7737	8.0167	-10.507
3.737	59.67	96.7453	8.0144	-10.355
3.770	60.03	96.7172	8.0121	-10.206
3.803	60.38	96.6894	8.0098	-10.054
3.837	60.73	96.6618	8.0075	-9.902
3.870	61.08	96.6346	8.0052	-9.753
3.903	61.43	96.6076	8.0030	-9.605
3.937	61.78	96.5809	8.0008	-9.457
3.970	62.13	96.5544	7.9986	-9.309
4.003	62.47	96.5283	7.9964	-9.158
4.037	62.82	96.5024	7.9943	-9.010
4.070	63.17	96.4768	7.9921	-8.864
4.103	63.52	96.4515	7.9900	-8.718
4.137	63.86	96.4264	7.9880	-8.568
4.170	64.21	96.4017	7.9859	-8.423
4.203	64.55	96.3773	7.9839	-8.279
4.237	64.90	96.3533	7.9819	-8.137
4.270	65.24	96.3294	7.9799	-7.993
4.303	65.59	96.3060	7.9780	-7.850
4.337	65.93	96.2828	7.9761	-7.707
4.370	66.28	96.2599	7.9742	-7.564
4.403	66.62	96.2373	7.9723	-7.422
4.437	66.96	96.2150	7.9705	-7.280
4.470	67.30	96.1930	7.9686	-7.139
4.503	67.65	96.1712	7.9668	-6.998
4.537	67.99	96.1497	7.9650	-6.860
4.570	68.33	96.1284	7.9633	-6.722
4.603	68.67	96.1075	7.9616	-6.586
4.637	69.01	96.0869	7.9598	-6.447
4.670	69.36	96.0665	7.9582	-6.309
4.703	69.70	96.0464	7.9565	-6.173
4.737	70.04	96.0266	7.9549	-6.039
4.770	70.38	96.0069	7.9532	-5.906
4.803	70.72	95.9876	7.9516	-5.774
4.837	71.06	95.9684	7.9500	-5.641
4.870	71.41	95.9496	7.9485	-5.510
4.903	71.75	95.9310	7.9469	-5.381
4.937	72.09	95.9127	7.9454	-5.250
4.970	72.43	95.8947	7.9439	-5.122
5.003	72.77	95.8769	7.9424	-4.992
5.037	73.11	95.8593	7.9410	-4.865
5.070	73.46	95.8419	7.9395	-4.735
5.103	73.80	95.8247	7.9381	-4.607
5.137	74.14	95.8078	7.9367	-4.480
5.170	74.48	95.7911	7.9353	-4.355
5.203	74.82	95.7747	7.9340	-4.232
5.237	75.16	95.7585	7.9326	-4.109
5.270	75.50	95.7426	7.9313	-3.986
5.303	75.85	95.7269	7.9300	-3.865
5.337	76.19	95.7115	7.9287	-3.741
5.370	76.53	95.6963	7.9275	-3.618
5.403	76.87	95.6812	7.9262	-3.496
5.437	77.21	95.6664	7.9250	-3.377
5.470	77.56	95.6518	7.9238	-3.257
5.503	77.90	95.6374	7.9226	-3.139
5.537	78.24	95.6233	7.9214	-3.020
5.570	78.59	95.6093	7.9203	-2.904
5.603	78.93	95.5956	7.9191	-2.788
5.637	79.28	95.5820	7.9180	-2.673
5.670	79.62	95.5687	7.9169	-2.559
5.703	79.96	95.5555	7.9158	-2.444
5.737	80.31	95.5424	7.9147	-2.329
5.770	80.65	95.5296	7.9137	-2.218
5.803	80.99	95.5169	7.9126	-2.108
5.837	81.34	95.5045	7.9116	-1.997
5.870	81.68	95.4923	7.9106	-1.882
5.903	82.03	95.4802	7.9096	-1.769
5.937	82.37	95.4684	7.9086	-1.659
5.970	82.72	95.4568	7.9076	-1.549
6.003	83.07	95.4454	7.9067	-1.440
6.037	83.41	95.4341	7.9058	-1.331
6.070	83.76	95.4230	7.9049	-1.225
6.103	84.10	95.4120	7.9039	-1.119
6.137	84.45	95.4011	7.9030	-1.013
6.170	84.79	95.3905	7.9022	-0.905
6.203	85.14	95.3800	7.9013	-0.798
6.237	85.49	95.3697	7.9004	-0.692
6.270	85.83	95.3596	7.8996	-0.586
6.303	86.18	95.3496	7.8988	-0.482
6.337	86.53	95.3398	7.8980	-0.379
6.370	86.87	95.3301	7.8972	-0.274
6.403	87.22	95.3206	7.8964	-0.171
6.437	87.57	95.3113	7.8956	-0.070
6.470	87.91	95.3022	7.8948	0.033
6.503	88.26	95.2932	7.8941	0.132
6.537	88.61	95.2844	7.8934	0.230
6.570	88.95	95.2758	7.8927	0.330
6.603	89.30	95.2672	7.8919	0.429
6.637	89.65	95.2588	7.8913	0.529
6.670	89.99	95.2506	7.8906	0.626
6.703	90.34	95.2424	7.8899	0.722
6.737	90.69	95.2344	7.8892	0.818
6.770	91.03	95.2266	7.8886	0.914
6.803	91.38	95.2190	7.8879	1.009
6.837	91.73	95.2114	7.8873	1.104
6.870	92.07	95.2039	7.8867	1.199
6.903	92.42	95.1965	7.8861	1.295
6.937	92.77	95.1891	7.8855	1.389
6.970	93.11	95.1819	7.8849	1.482
7.003	93.46	95.1749	7.8843	1.574
[...]
219.053	949.66	-0.1648	-0.0137	33.807
219.170	949.66	-0.1652	-0.0137	33.806
219.287	949.66	-0.1660	-0.0138	33.804
219.403	949.66	-0.1665	-0.0138	33.794
219.520	949.66	-0.1669	-0.0138	33.793
219.637	949.66	-0.1673	-0.0139	33.791
219.753	949.66	-0.1678	-0.0139	33.793
219.870	949.66	-0.1682	-0.0139	33.797
219.987	949.66	-0.1687	-0.0140	33.800
220.103	949.66	-0.1691	-0.0140	33.796
220.220	949.66	-0.1696	-0.0141	33.781
220.337	949.66	-0.1702	-0.0141	33.778
220.453	949.66	-0.1708	-0.0141	33.781
220.570	949.65	-0.1713	-0.0142	33.787
220.687	949.66	-0.1716	-0.0142	33.789
220.803	949.66	-0.1723	-0.0143	33.781
220.920	949.65	-0.1731	-0.0143	33.777
221.037	949.65	-0.1737	-0.0144	33.784
221.153	949.65	-0.1744	-0.0144	33.789
221.270	949.65	-0.1748	-0.0145	33.791
221.387	949.65	-0.1753	-0.0145	33.798
221.503	949.65	-0.1756	-0.0145	33.792
221.620	949.65	-0.1762	-0.0146	33.792
221.737	949.65	-0.1765	-0.0146	33.798
221.853	949.65	-0.1769	-0.0147	33.790
221.970	949.65	-0.1775	-0.0147	33.786
222.087	949.65	-0.1780	-0.0147	33.788
222.203	949.65	-0.1785	-0.0148	33.802
222.320	949.65	-0.1787	-0.0148	33.808
222.437	949.65	-0.1792	-0.0148	33.816
222.553	949.65	-0.1797	-0.0149	33.814
222.670	949.65	-0.1802	-0.0149	33.818
222.787	949.65	-0.1807	-0.0150	33.811
222.903	949.65	-0.1812	-0.0150	33.812
223.020	949.65	-0.1818	-0.0151	33.810
223.137	949.65	-0.1823	-0.0151	33.807
223.253	949.65	-0.1827	-0.0151	33.797
223.370	949.65	-0.1831	-0.0152	33.798
223.487	949.65	-0.1835	-0.0152	33.801
223.603	949.65	-0.1839	-0.0152	33.805
223.720	949.65	-0.1844	-0.0153	33.812
223.837	949.65	-0.1850	-0.0153	33.810
223.953	949.65	-0.1855	-0.0154	33.811
224.070	949.65	-0.1863	-0.0154	33.808
224.187	949.65	-0.1870	-0.0155	33.803
224.303	949.65	-0.1876	-0.0155	33.806
224.420	949.65	-0.1880	-0.0156	33.809
224.537	949.65	-0.1884	-0.0156	33.810
224.653	949.65	-0.1890	-0.0157	33.812
224.770	949.65	-0.1892	-0.0157	33.822
224.887	949.65	-0.1897	-0.0157	33.829
225.003	949.65	-0.1902	-0.0158	33.828
225.120	949.65	-0.1905	-0.0158	33.831
225.237	949.65	-0.1909	-0.0158	33.835
225.353	949.65	-0.1912	-0.0158	33.841
225.470	949.65	-0.1918	-0.0159	33.842
225.587	949.65	-0.1924	-0.0159	33.837
225.703	949.65	-0.1930	-0.0160	33.837
225.820	949.65	-0.1936	-0.0160	33.837
225.937	949.65	-0.1941	-0.0161	33.831
226.053	949.65	-0.1945	-0.0161	33.832
226.170	949.65	-0.1950	-0.0162	33.829
226.287	949.65	-0.1955	-0.0162	33.832
226.403	949.65	-0.1958	-0.0162	33.849
226.520	949.65	-0.1964	-0.0163	33.853
226.637	949.65	-0.1967	-0.0163	33.853
226.753	949.65	-0.1971	-0.0163	33.854
226.870	949.65	-0.1976	-0.0164	33.860
226.987	949.65	-0.1980	-0.0164	33.872
227.103	949.65	-0.1985	-0.0164	33.884
227.220	949.65	-0.1991	-0.0165	33.893
227.337	949.65	-0.1995	-0.0165	33.889
227.453	949.65	-0.2000	-0.0166	33.894
227.570	949.65	-0.2006	-0.0166	33.901
227.687	949.65	-0.2012	-0.0167	33.907
227.803	949.65	-0.2016	-0.0167	33.914
227.920	949.65	-0.2020	-0.0167	33.920
228.037	949.65	-0.2025	-0.0168	33.923
228.153	949.65	-0.2030	-0.0168	33.919
228.270	949.65	-0.2037	-0.0169	33.909
228.387	949.65	-0.2043	-0.0169	33.907
228.503	949.65	-0.2048	-0.0170	33.915
228.620	949.65	-0.2055	-0.0170	33.919
228.737	949.65	-0.2060	-0.0171	33.922
228.853	949.65	-0.2064	-0.0171	33.921
228.970	949.65	-0.2068	-0.0171	33.927
229.087	949.65	-0.2072	-0.0172	33.931
229.203	949.65	-0.2076	-0.0172	33.937
229.320	949.65	-0.2081	-0.0172	33.940
229.437	949.65	-0.2086	-0.0173	33.949
229.553	949.65	-0.2090	-0.0173	33.950
229.670	949.65	-0.2094	-0.0173	33.949
229.787	949.65	-0.2098	-0.0174	33.952
229.903	949.65	-0.2101	-0.0174	33.956
230.020	949.65	-0.2107	-0.0175	33.954
230.137		-0.2113	-0.0175
230.145		-0.2114	-0.0175