Folder: tga_data_analysis/example/deconvolution

Note: README.md
# PyTGA - Thermogravimetric Analysis in Python

## Overview
PyTGA is a Python module designed for conducting and analyzing Thermogravimetric Analysis (TGA) experiments. It offers tools for loading, processing, and analyzing TGA data, focusing on proximate and oxidation analysis, solid distillation analysis, and deconvolution analysis.

## Features
- **Data Loading**: Supports loading TGA data from files.
- **Proximate Analysis**: Calculates moisture, ash, and volatile matter.
- **Oxidation Analysis**: Computes Ti, Tp, Tb, etc.
- **Solid Distillation Analysis**: Analyzes solid distillation over time.
- **Deconvolution Analysis**: Deconvolutes TGA curves for peak analysis.
- **Plotting and Visualization**: Functions for TGA data visualization.

File: CLSOx5_3.txt
Time	Temperature	Weight	Weight	Heat Flow
min	°C	%	µg	mW
0.003		100.0011	11078.5
0.037		100.0066	11079.1
0.070	23.39	100.0114	11079.6	-16.613
0.103	23.54	100.0151	11080	-16.517
0.137	23.69	100.0177	11080.3	-16.427
0.170	23.83	100.0192	11080.5	-16.344
0.203	23.97	100.0200	11080.6	-16.264
0.237	24.10	100.0199	11080.6	-16.187
0.270	24.24	100.0192	11080.5	-16.113
0.303	24.37	100.0179	11080.3	-16.043
0.337	24.50	100.0161	11080.1	-15.976
0.370	24.63	100.0137	11079.9	-15.914
0.403	24.76	100.0110	11079.6	-15.852
0.437	24.89	100.0077	11079.2	-15.791
0.470	25.03	100.0040	11078.8	-15.733
0.503	25.18	99.9999	11078.3	-15.675
0.537	25.33	99.9954	11077.8	-15.616
0.570	25.49	99.9907	11077.3	-15.557
0.603	25.66	99.9859	11076.8	-15.492
0.637	25.83	99.9808	11076.2	-15.426
0.670	26.02	99.9757	11075.7	-15.360
0.703	26.21	99.9706	11075.1	-15.294
0.737	26.41	99.9654	11074.5	-15.223
0.770	26.62	99.9601	11073.9	-15.146
0.803	26.83	99.9548	11073.3	-15.064
0.837	27.06	99.9494	11072.7	-14.980
0.870	27.29	99.9440	11072.1	-14.893
0.903	27.53	99.9387	11071.6	-14.801
0.937	27.78	99.9334	11071	-14.704
0.970	28.04	99.9282	11070.4	-14.603
1.003	28.31	99.9230	11069.8	-14.498
1.037	28.58	99.9179	11069.2	-14.388
1.070	28.86	99.9128	11068.7	-14.273
1.103	29.15	99.9078	11068.1	-14.150
1.137	29.45	99.9029	11067.6	-14.019
1.170	29.75	99.8980	11067	-13.881
1.203	30.06	99.8931	11066.5	-13.735
1.237	30.38	99.8884	11066	-13.583
1.270	30.70	99.8836	11065.4	-13.428
1.303	31.03	99.8789	11064.9	-13.261
1.337	31.36	99.8741	11064.4	-13.090
1.370	31.70	99.8693	11063.9	-12.911
1.403	32.04	99.8644	11063.3	-12.724
1.437	32.39	99.8595	11062.8	-12.528
1.470	32.75	99.8544	11062.2	-12.324
1.503	33.11	99.8494	11061.7	-12.112
1.537	33.47	99.8442	11061.1	-11.898
1.570	33.84	99.8388	11060.5	-11.677
1.603	34.21	99.8333	11059.9	-11.449
1.637	34.58	99.8276	11059.2	-11.218
1.670	34.96	99.8217	11058.6	-10.983
1.703	35.34	99.8157	11057.9	-10.744
1.737	35.72	99.8095	11057.2	-10.498
1.770	36.11	99.8030	11056.5	-10.251
1.803	36.50	99.7963	11055.8	-10.003
1.837	36.88	99.7894	11055	-9.756
1.870	37.27	99.7823	11054.2	-9.505
1.903	37.67	99.7749	11053.4	-9.252
1.937	38.06	99.7672	11052.6	-8.997
1.970	38.45	99.7594	11051.7	-8.744
2.003	38.85	99.7515	11050.8	-8.491
2.037	39.25	99.7433	11049.9	-8.237
2.070	39.64	99.7349	11049	-7.982
2.103	40.04	99.7263	11048	-7.726
2.137	40.43	99.7176	11047.1	-7.473
2.170	40.83	99.7086	11046.1	-7.218
2.203	41.22	99.6994	11045	-6.968
2.237	41.62	99.6900	11044	-6.714
2.270	42.01	99.6805	11043	-6.462
2.303	42.41	99.6708	11041.9	-6.212
2.337	42.80	99.6609	11040.8	-5.963
2.370	43.19	99.6509	11039.7	-5.714
2.403	43.58	99.6406	11038.5	-5.466
2.437	43.97	99.6302	11037.4	-5.221
2.470	44.36	99.6195	11036.2	-4.978
2.503	44.74	99.6087	11035	-4.738
2.537	45.13	99.5976	11033.8	-4.497
2.570	45.51	99.5864	11032.5	-4.259
2.603	45.90	99.5750	11031.3	-4.023
2.637	46.28	99.5634	11030	-3.790
2.670	46.66	99.5516	11028.7	-3.559
2.703	47.04	99.5396	11027.3	-3.329
2.737	47.41	99.5275	11026	-3.102
2.770	47.79	99.5151	11024.6	-2.880
2.803	48.16	99.5027	11023.2	-2.659
2.837	48.53	99.4900	11021.8	-2.436
2.870	48.90	99.4772	11020.4	-2.215
2.903	49.27	99.4642	11019	-1.997
2.937	49.64	99.4510	11017.5	-1.782
2.970	50.01	99.4376	11016	-1.569
3.003	50.37	99.4241	11014.5	-1.358
3.037	50.74	99.4105	11013	-1.151
3.070	51.10	99.3966	11011.5	-0.945
3.103	51.46	99.3826	11009.9	-0.740
3.137	51.82	99.3684	11008.4	-0.537
3.170	52.18	99.3541	11006.8	-0.335
3.203	52.54	99.3397	11005.2	-0.134
3.237	52.90	99.3250	11003.6	0.065
3.270	53.25	99.3102	11001.9	0.263
3.303	53.61	99.2953	11000.3	0.458
3.337	53.96	99.2803	10998.6	0.650
3.370	54.31	99.2652	10996.9	0.843
3.403	54.67	99.2499	10995.2	1.034
3.437	55.02	99.2345	10993.5	1.221
3.470	55.37	99.2190	10991.8	1.405
3.503	55.72	99.2033	10990.1	1.589
3.537	56.07	99.1875	10988.3	1.775
3.570	56.41	99.1716	10986.6	1.960
3.603	56.76	99.1555	10984.8	2.143
3.637	57.11	99.1394	10983	2.325
3.670	57.46	99.1231	10981.2	2.507
3.703	57.81	99.1068	10979.4	2.687
3.737	58.15	99.0903	10977.6	2.865
3.770	58.50	99.0738	10975.7	3.043
3.803	58.85	99.0572	10973.9	3.218
3.837	59.19	99.0405	10972	3.393
3.870	59.54	99.0238	10970.2	3.568
3.903	59.88	99.0070	10968.3	3.744
3.937	60.23	98.9901	10966.5	3.917
3.970	60.57	98.9732	10964.6	4.090
4.003	60.92	98.9562	10962.7	4.262
4.037	61.27	98.9391	10960.8	4.435
4.070	61.61	98.9221	10958.9	4.608
4.103	61.96	98.9049	10957	4.781
4.137	62.30	98.8877	10955.1	4.953
4.170	62.65	98.8705	10953.2	5.123
4.203	62.99	98.8533	10951.3	5.293
4.237	63.34	98.8360	10949.4	5.461
4.270	63.68	98.8187	10947.5	5.626
4.303	64.03	98.8013	10945.6	5.796
4.337	64.37	98.7840	10943.6	5.968
4.370	64.72	98.7667	10941.7	6.136
4.403	65.07	98.7494	10939.8	6.305
4.437	65.41	98.7322	10937.9	6.472
4.470	65.76	98.7149	10936	6.640
4.503	66.11	98.6976	10934.1	6.806
4.537	66.45	98.6803	10932.1	6.972
4.570	66.80	98.6630	10930.2	7.138
4.603	67.15	98.6458	10928.3	7.303
4.637	67.49	98.6287	10926.4	7.470
4.670	67.84	98.6116	10924.5	7.637
4.703	68.19	98.5946	10922.6	7.802
4.737	68.54	98.5775	10920.8	7.967
4.770	68.89	98.5606	10918.9	8.131
4.803	69.24	98.5436	10917	8.297
4.837	69.59	98.5267	10915.1	8.465
4.870	69.94	98.5099	10913.3	8.631
4.903	70.29	98.4932	10911.4	8.795
4.937	70.64	98.4765	10909.6	8.959
4.970	70.99	98.4599	10907.7	9.122
5.003	71.34	98.4434	10905.9	9.285
5.037	71.69	98.4270	10904.1	9.448
5.070	72.04	98.4106	10902.3	9.612
5.103	72.39	98.3943	10900.5	9.777
5.137	72.74	98.3782	10898.7	9.941
5.170	73.09	98.3621	10896.9	10.102
5.203	73.44	98.3461	10895.1	10.267
5.237	73.79	98.3302	10893.4	10.433
5.270	74.14	98.3143	10891.6	10.597
5.303	74.50	98.2986	10889.9	10.758
5.337	74.85	98.2830	10888.1	10.921
5.370	75.20	98.2674	10886.4	11.085
5.403	75.56	98.2520	10884.7	11.250
5.437	75.91	98.2367	10883	11.413
5.470	76.26	98.2216	10881.3	11.573
5.503	76.61	98.2065	10879.7	11.731
5.537	76.97	98.1916	10878	11.892
5.570	77.32	98.1768	10876.4	12.053
5.603	77.67	98.1621	10874.7	12.217
5.637	78.03	98.1475	10873.1	12.380
5.670	78.38	98.1331	10871.5	12.542
5.703	78.74	98.1188	10869.9	12.702
5.737	79.09	98.1046	10868.4	12.862
5.770	79.44	98.0906	10866.8	13.022
5.803	79.80	98.0767	10865.3	13.183
5.837	80.15	98.0629	10863.7	13.345
5.870	80.50	98.0493	10862.2	13.505
5.903	80.86	98.0359	10860.8	13.663
5.937	81.21	98.0226	10859.3	13.823
5.970	81.57	98.0094	10857.8	13.981
6.003	81.92	97.9963	10856.4	14.140
6.037	82.28	97.9834	10854.9	14.298
6.070	82.63	97.9707	10853.5	14.456
6.103	82.98	97.9581	10852.1	14.614
6.137	83.34	97.9457	10850.8	14.772
6.170	83.69	97.9333	10849.4	14.929
6.203	84.05	97.9212	10848	15.085
6.237	84.40	97.9092	10846.7	15.243
6.270	84.76	97.8974	10845.4	15.398
6.303	85.11	97.8857	10844.1	15.553
6.337	85.46	97.8742	10842.8	15.708
6.370	85.82	97.8628	10841.6	15.863
6.403	86.17	97.8516	10840.3	16.019
6.437	86.53	97.8405	10839.1	16.173
6.470	86.88	97.8296	10837.9	16.326
6.503	87.23	97.8188	10836.7	16.481
6.537	87.59	97.8082	10835.5	16.633
6.570	87.94	97.7978	10834.4	16.786
6.603	88.29	97.7875	10833.2	16.940
6.637	88.65	97.7773	10832.1	17.091
6.670	89.00	97.7674	10831	17.242
6.703	89.35	97.7576	10829.9	17.392
6.737	89.71	97.7480	10828.9	17.542
6.770	90.06	97.7386	10827.8	17.692
6.803	90.41	97.7292	10826.8	17.842
6.837	90.77	97.7201	10825.8	17.993
6.870	91.12	97.7112	10824.8	18.141
6.903	91.47	97.7024	10823.8	18.288
6.937	91.83	97.6937	10822.8	18.434
6.970	92.18	97.6852	10821.9	18.580
7.003	92.53	97.6768	10821	18.728
7.037	92.88	97.6686	10820.1	18.874
7.070	93.24	97.6606	10819.2	19.021
7.103	93.59	97.6527	10818.3	19.169
7.137	93.94	97.6451	10817.5	19.315
7.170	94.29	97.6376	10816.6	19.459
7.203	94.65	97.6302	10815.8	19.601
7.237	95.00	97.6229	10815	19.745
7.270	95.35	97.6158	10814.2	19.888
7.303	95.70	97.6089	10813.4	20.032
7.337	96.05	97.6021	10812.7	20.172
7.370	96.40	97.5954	10812	20.312
7.403	96.76	97.5890	10811.2	20.453
7.437	97.11	97.5826	10810.5	20.594
7.470	97.46	97.5764	10809.9	20.734
7.503	97.81	97.5704	10809.2	20.872
7.537	98.16	97.5644	10808.5	21.009
7.570	98.51	97.5586	10807.9	21.147
7.603	98.86	97.5530	10807.3	21.286
7.637	99.22	97.5476	10806.7	21.424
7.670	99.57	97.5423	10806.1	21.559
7.703	99.92	97.5371	10805.5	21.693
7.737	100.27	97.5320	10804.9	21.828
7.770	100.62	97.5270	10804.4	21.963
7.803	100.97	97.5221	10803.8	22.096
7.837	101.32	97.5174	10803.3	22.228
7.870	101.67	97.5128	10802.8	22.361
7.903	102.02	97.5084	10802.3	22.494
7.937	102.37	97.5040	10801.8	22.628
7.970	102.72	97.4998	10801.4	22.760
8.003	103.07	97.4957	10800.9	22.891
8.037	103.42	97.4917	10800.5	23.024
8.070	103.78	97.4878	10800	23.155
8.103	104.13	97.4841	10799.6	23.286
8.137	104.48	97.4805	10799.2	23.414
8.170	104.83	97.4769	10798.8	23.540
8.203	105.18	97.4735	10798.5	23.669
8.237	105.53	97.4702	10798.1	23.799
8.270	105.88	97.4670	10797.7	23.927
8.303	106.23	97.4639	10797.4	24.050
8.337	106.58	97.4609	10797.1	24.177
8.370	106.93	97.4579	10796.7	24.303
8.403	107.28	97.4551	10796.4	24.429
8.437	107.62	97.4523	10796.1	24.553
8.470	107.97	97.4497	10795.8	24.678
8.503	108.32	97.4472	10795.5	24.801
8.537	108.67	97.4448	10795.3	24.923
8.570	109.02	97.4425	10795	25.045
8.603	109.37	97.4403	10794.8	25.165
8.612	109.46	97.4397	10794.7	25.196

[step]
Isothermal 30.0 min
Time	Temperature	Weight	Weight	Heat Flow
min	°C	%	µg	mW
8.620	109.55	97.4392	10794.6	25.227
8.737	110.76	97.4321	10793.9	25.646
8.853	111.93	97.4262	10793.2	26.034
8.970	112.98	97.4221	10792.8	26.376
9.087	113.90	97.4199	10792.5	26.650
9.203	114.66	97.4190	10792.4	26.842
9.320	115.24	97.4192	10792.4	26.949
9.437	115.64	97.4204	10792.6	26.976
9.553	115.87	97.4220	10792.7	26.931
9.670	115.95	97.4236	10792.9	26.784
9.787	115.90	97.4251	10793.1	26.586
9.903	115.75	97.4264	10793.2	26.348
10.020	115.55	97.4271	10793.3	26.087
10.137	115.33	97.4272	10793.3	25.816
10.253	115.10	97.4267	10793.3	25.548
10.370	114.87	97.4257	10793.2	25.296
10.487	114.66	97.4248	10793.1	25.069
10.603	114.47	97.4236	10792.9	24.864
10.720	114.32	97.4222	10792.8	24.691
10.837	114.20	97.4208	10792.6	24.554
10.953	114.11	97.4194	10792.5	24.440
11.070	114.06	97.4181	10792.3	24.362
11.187	114.04	97.4168	10792.2	24.313
11.303	114.05	97.4157	10792	24.287
11.420	114.08	97.4146	10791.9	24.273
11.537	114.14	97.4136	10791.8	24.272
11.653	114.22	97.4129	10791.7	24.284
11.770	114.31	97.4123	10791.7	24.308
11.887	114.40	97.4119	10791.6	24.356
12.003	114.50	97.4115	10791.6	24.404
12.120	114.59	97.4112	10791.5	24.450
12.237	114.69	97.4112	10791.5	24.495
12.353	114.78	97.4112	10791.5	24.540
12.470	114.86	97.4111	10791.5	24.573
12.587	114.93	97.4111	10791.5	24.609
12.703	115.00	97.4112	10791.5	24.638
12.820	115.05	97.4114	10791.6	24.659
12.937	115.10	97.4115	10791.6	24.676
13.053	115.14	97.4116	10791.6	24.689
13.170	115.16	97.4118	10791.6	24.699
13.287	115.18	97.4119	10791.6	24.705
13.403	115.20	97.4119	10791.6	24.707
13.520	115.21	97.4120	10791.6	24.706
13.637	115.22	97.4120	10791.6	24.702
13.753	115.22	97.4121	10791.6	24.695
13.870	115.22	97.4121	10791.6	24.686
13.987	115.22	97.4119	10791.6	24.676
14.103	115.22	97.4119	10791.6	24.666
14.220	115.22	97.4118	10791.6	24.660
14.337	115.22	97.4119	10791.6	24.653
14.453	115.22	97.4119	10791.6	24.643
14.570	115.23	97.4116	10791.6	24.638
14.687	115.23	97.4114	10791.6	24.632
14.803	115.24	97.4113	10791.6	24.625
14.920	115.25	97.4111	10791.5	24.622
15.037	115.25	97.4111	10791.5	24.618
15.153	115.26	97.4109	10791.5	24.616
15.270	115.27	97.4110	10791.5	24.614
15.387	115.28	97.4109	10791.5	24.615
15.503	115.29	97.4108	10791.5	24.615
15.620	115.31	97.4107	10791.5	24.616
15.737	115.32	97.4106	10791.5	24.615
15.853	115.33	97.4105	10791.5	24.615
15.970	115.34	97.4104	10791.5	24.615
16.087	115.35	97.4104	10791.5	24.617
16.203	115.35	97.4104	10791.5	24.618
16.320	115.36	97.4105	10791.5	24.617
16.437	115.37	97.4107	10791.5	24.619
16.553	115.37	97.4105	10791.5	24.619
16.670	115.38	97.4106	10791.5	24.619
16.787	115.38	97.4106	10791.5	24.616
16.903	115.38	97.4105	10791.5	24.613
17.020	115.39	97.4104	10791.5	24.610
17.137	115.39	97.4103	10791.4	24.607
17.253	115.39	97.4103	10791.4	24.607
17.370	115.40	97.4103	10791.5	24.607
17.487	115.40	97.4102	10791.4	24.606
17.603	115.40	97.4101	10791.4	24.601
17.720	115.40	97.4100	10791.4	24.596
17.837	115.40	97.4100	10791.4	24.593
17.953	115.40	97.4100	10791.4	24.591
18.070	115.40	97.4102	10791.4	24.586
18.187	115.41	97.4102	10791.4	24.583
18.303	115.41	97.4103	10791.4	24.580
18.420	115.41	97.4104	10791.5	24.576
18.537	115.41	97.4104	10791.5	24.572
18.653	115.41	97.4105	10791.5	24.569
18.770	115.41	97.4106	10791.5	24.565
18.887	115.41	97.4105	10791.5	24.562
19.003	115.41	97.4104	10791.5	24.559
19.120	115.41	97.4103	10791.4	24.556
19.237	115.41	97.4102	10791.4	24.551
19.353	115.41	97.4101	10791.4	24.546
19.470	115.41	97.4100	10791.4	24.544
19.587	115.41	97.4101	10791.4	24.540
19.703	115.41	97.4102	10791.4	24.536
19.820	115.41	97.4103	10791.4	24.531
19.937	115.41	97.4103	10791.4	24.528
20.053	115.41	97.4103	10791.4	24.526
20.170	115.41	97.4102	10791.4	24.524
20.287	115.41	97.4102	10791.4	24.521
20.403	115.41	97.4102	10791.4	24.518
20.520	115.41	97.4103	10791.5	24.513
20.637	115.41	97.4105	10791.5	24.509
20.753	115.42	97.4105	10791.5	24.505
20.870	115.41	97.4105	10791.5	24.501
20.987	115.41	97.4105	10791.5	24.498
21.103	115.41	97.4106	10791.5	24.494
21.220	115.41	97.4106	10791.5	24.489
21.337	115.41	97.4106	10791.5	24.486
21.453	115.41	97.4107	10791.5	24.482
21.570	115.41	97.4107	10791.5	24.479
21.687	115.41	97.4108	10791.5	24.476
21.803	115.41	97.4107	10791.5	24.474
21.920	115.41	97.4106	10791.5	24.471
22.037	115.41	97.4106	10791.5	24.466
22.153	115.41	97.4107	10791.5	24.463
22.270	115.41	97.4106	10791.5	24.459
22.387	115.41	97.4106	10791.5	24.455
22.503	115.41	97.4107	10791.5	24.453
22.620	115.41	97.4107	10791.5	24.451
22.737	115.41	97.4105	10791.5	24.447
22.853	115.41	97.4106	10791.5	24.443
22.970	115.40	97.4107	10791.5	24.440
23.087	115.40	97.4105	10791.5	24.432
23.203	115.40	97.4104	10791.5	24.429
23.320	115.40	97.4104	10791.5	24.428
23.437	115.40	97.4104	10791.5	24.425
23.553	115.40	97.4104	10791.5	24.422
23.670	115.40	97.4106	10791.5	24.417
23.787	115.40	97.4106	10791.5	24.416
23.903	115.40	97.4107	10791.5	24.410
24.020	115.40	97.4107	10791.5	24.406
24.137	115.40	97.4106	10791.5	24.403
24.253	115.40	97.4106	10791.5	24.400
24.370	115.40	97.4107	10791.5	24.397
24.487	115.40	97.4108	10791.5	24.393
24.603	115.40	97.4108	10791.5	24.388
24.720	115.40	97.4107	10791.5	24.385
24.837	115.40	97.4107	10791.5	24.382
24.953	115.40	97.4108	10791.5	24.379
25.070	115.39	97.4107	10791.5	24.376
25.187	115.40	97.4107	10791.5	24.373
25.303	115.39	97.4106	10791.5	24.368
25.420	115.39	97.4105	10791.5	24.362
25.537	115.39	97.4107	10791.5	24.357
25.653	115.39	97.4107	10791.5	24.351
25.770	115.39	97.4106	10791.5	24.348
25.887	115.39	97.4106	10791.5	24.347
26.003	115.39	97.4108	10791.5	24.344
26.120	115.39	97.4109	10791.5	24.340
26.237	115.39	97.4109	10791.5	24.339
26.353	115.38	97.4110	10791.5	24.334
26.470	115.38	97.4111	10791.5	24.328
26.587	115.38	97.4111	10791.5	24.326
26.703	115.38	97.4111	10791.5	24.323
26.820	115.38	97.4112	10791.5	24.320
26.937	115.38	97.4110	10791.5	24.316
27.053	115.38	97.4109	10791.5	24.313
27.170	115.38	97.4111	10791.5	24.309
27.287	115.38	97.4112	10791.5	24.307
27.403	115.38	97.4111	10791.5	24.304
27.520	115.38	97.4112	10791.5	24.303
27.637	115.38	97.4112	10791.5	24.297
27.753	115.38	97.4110	10791.5	24.295
27.870	115.38	97.4109	10791.5	24.294
27.987	115.38	97.4108	10791.5	24.293
28.103	115.38	97.4108	10791.5	24.290
28.220	115.38	97.4108	10791.5	24.287
28.337	115.38	97.4109	10791.5	24.285
28.453	115.38	97.4111	10791.5	24.281
28.570	115.37	97.4113	10791.6	24.277
28.687	115.38	97.4114	10791.6	24.274
28.803	115.37	97.4115	10791.6	24.269
28.920	115.37	97.4115	10791.6	24.265
29.037	115.37	97.4114	10791.6	24.264
29.153	115.37	97.4113	10791.6	24.262
29.270	115.37	97.4111	10791.5	24.260
29.387	115.37	97.4111	10791.5	24.258
29.503	115.37	97.4111	10791.5	24.256
29.620	115.37	97.4111	10791.5	24.253
29.737	115.37	97.4111	10791.5	24.251
29.853	115.37	97.4111	10791.5	24.248
29.970	115.37	97.4111	10791.5	24.244
30.087	115.37	97.4112	10791.5	24.242
30.203	115.37	97.4113	10791.6	24.238
30.320	115.37	97.4115	10791.6	24.235
30.437	115.37	97.4114	10791.6	24.230
30.553	115.37	97.4113	10791.6	24.228
30.670	115.37	97.4113	10791.6	24.223
30.787	115.36	97.4114	10791.6	24.221
30.903	115.36	97.4115	10791.6	24.219
31.020	115.37	97.4116	10791.6	24.219
31.137	115.36	97.4116	10791.6	24.218
31.253	115.36	97.4117	10791.6	24.217
31.370	115.36	97.4118	10791.6	24.214
31.487	115.36	97.4118	10791.6	24.212
31.603	115.36	97.4119	10791.6	24.209
31.720	115.36	97.4118	10791.6	24.206
31.837	115.36	97.4117	10791.6	24.204
31.953	115.36	97.4117	10791.6	24.204
32.070	115.36	97.4117	10791.6	24.202
32.187	115.36	97.4118	10791.6	24.201
32.303	115.36	97.4118	10791.6	24.199
32.420	115.36	97.4119	10791.6	24.199
32.537	115.36	97.4120	10791.6	24.197
32.653	115.36	97.4120	10791.6	24.195
32.770	115.36	97.4120	10791.6	24.192
32.887	115.36	97.4118	10791.6	24.190
33.003	115.36	97.4117	10791.6	24.189
33.120	115.36	97.4116	10791.6	24.185
33.237	115.36	97.4117	10791.6	24.181
33.353	115.36	97.4118	10791.6	24.179
33.470	115.36	97.4117	10791.6	24.177
33.587	115.36	97.4118	10791.6	24.175
33.703	115.36	97.4118	10791.6	24.173
33.820	115.36	97.4119	10791.6	24.171
33.937	115.35	97.4120	10791.6	24.166
34.053	115.35	97.4120	10791.6	24.164
34.170	115.35	97.4119	10791.6	24.164
[...]
210.628	950.97	-2.5877	-286.6733	102.920
210.753	950.99	-2.5879	-286.6922	102.994
210.878	951.01	-2.5882	-286.7273	103.062
211.003	951.03	-2.5883	-286.7425	103.129
211.128	951.05	-2.5885	-286.7650	103.199
211.253	951.07	-2.5889	-286.8026	103.259
211.378	951.08	-2.5892	-286.8459	103.318
211.503	951.10	-2.5894	-286.8585	103.377
211.628	951.11	-2.5895	-286.8791	103.437
211.753	951.13	-2.5899	-286.9157	103.489
211.878	951.14	-2.5900	-286.9343	103.559
212.003	951.16	-2.5904	-286.9789	103.617
212.128	951.17	-2.5908	-287.0131	103.677
212.253	951.18	-2.5911	-287.0467	103.722
212.378	951.19	-2.5913	-287.0732	103.792
212.503	951.20	-2.5915	-287.0911	103.838
212.628	951.21	-2.5917	-287.1177	103.884
212.753	951.22	-2.5919	-287.1371	103.911
212.878	951.23	-2.5923	-287.1793	103.948
213.003	951.24	-2.5925	-287.2102	103.990
213.128	951.25	-2.5928	-287.2370	104.027
213.253	951.26	-2.5932	-287.2791	104.066
213.378	951.27	-2.5933	-287.2987	104.108
213.503	951.27	-2.5935	-287.3192	104.159
213.628	951.28	-2.5937	-287.3444	104.210
213.753	951.29	-2.5938	-287.3534	104.252
213.878	951.30	-2.5940	-287.3740	104.284
214.003	951.30	-2.5944	-287.4132	104.316
214.128	951.31	-2.5947	-287.4499	104.341
214.253	951.31	-2.5950	-287.4806	104.360
214.378	951.32	-2.5954	-287.5312	104.398
214.503	951.33	-2.5958	-287.5706	104.430
214.628	951.33	-2.5961	-287.5993	104.465
214.753	951.34	-2.5962	-287.6144	104.491
214.878	951.34	-2.5964	-287.6431	104.525
215.003	951.34	-2.5967	-287.6679	104.557
215.128	951.35	-2.5968	-287.6835	104.599
215.253	951.35	-2.5970	-287.7085	104.637
215.378	951.36	-2.5973	-287.7329	104.668
215.503	951.36	-2.5975	-287.7547	104.699
215.628	951.36	-2.5976	-287.7718	104.715
215.753	951.37	-2.5979	-287.7991	104.743
215.878	951.37	-2.5979	-287.8097	104.777
216.003	951.38	-2.5981	-287.8262	104.806
216.128	951.38	-2.5983	-287.8525	104.838
216.253	951.38	-2.5986	-287.8782	104.858
216.378	951.39	-2.5990	-287.9214	104.889
216.503	951.39	-2.5991	-287.9418	104.908
216.628	951.39	-2.5993	-287.9594	104.922
216.753	951.39	-2.5997	-287.9986	104.940
216.878	951.39	-2.5999	-288.0304	104.960
217.003	951.40	-2.6002	-288.0559	104.978
217.128	951.40	-2.6005	-288.0936	105.004
217.253	951.40	-2.6009	-288.1327	105.026
217.378	951.40	-2.6011	-288.1543	105.043
217.503	951.40	-2.6014	-288.1949	105.069
217.628	951.41	-2.6016	-288.2186	105.096
217.753	951.41	-2.6017	-288.2285	105.114
217.878	951.41	-2.6020	-288.2595	105.135
218.003	951.41	-2.6022	-288.2794	105.156
218.128	951.41	-2.6025	-288.3158	105.172
218.253	951.41	-2.6029	-288.3576	105.189
218.378	951.42	-2.6031	-288.3780	105.201
218.503	951.42	-2.6034	-288.4088	105.222
218.628	951.42	-2.6034	-288.4123	105.235
218.753	951.42	-2.6037	-288.4494	105.256
218.878	951.42	-2.6040	-288.4794	105.285
219.003	951.42	-2.6040	-288.4799	105.302
219.128	951.42	-2.6041	-288.4963	105.327
219.253	951.42	-2.6045	-288.5323	105.345
219.378	951.42	-2.6048	-288.5687	105.364
219.503	951.43	-2.6051	-288.6001	105.383
219.628	951.43	-2.6053	-288.6281	105.391
219.753	951.43	-2.6056	-288.6603	105.400
219.878	951.43	-2.6060	-288.7050	105.414
220.003	951.43	-2.6063	-288.7327	105.436
220.128	951.43	-2.6065	-288.7548	105.461
220.253	951.43	-2.6066	-288.7659	105.483
220.378	951.43	-2.6068	-288.7897	105.506
220.503	951.43	-2.6070	-288.8127	105.531
220.628	951.43	-2.6072	-288.8396	105.547
220.753	951.43	-2.6077	-288.8848	105.558
220.878	951.44	-2.6080	-288.9279	105.567
221.003	951.44	-2.6083	-288.9529	105.583
221.128	951.44	-2.6086	-288.9882	105.603
221.253	951.44	-2.6089	-289.0213	105.623
221.378	951.44	-2.6092	-289.0570	105.643
221.503	951.44	-2.6094	-289.0838	105.656
221.628	951.44	-2.6095	-289.0882	105.674
221.753	951.44	-2.6097	-289.1075	105.691
221.878	951.44	-2.6099	-289.1283	105.703
222.003	951.44	-2.6101	-289.1582	105.721
222.128	951.44	-2.6104	-289.1861	105.741
222.253	951.44	-2.6105	-289.2022	105.756
222.378	951.44	-2.6107	-289.2253	105.773
222.503	951.44	-2.6109	-289.2428	105.787
222.628	951.44	-2.6112	-289.2823	105.803
222.753	951.44	-2.6115	-289.3099	105.812
222.878	951.44	-2.6117	-289.3329	105.826
223.003	951.44	-2.6119	-289.3548	105.842
223.128	951.44	-2.6120	-289.3680	105.853
223.253	951.45	-2.6121	-289.3814	105.863
223.378	951.45	-2.6124	-289.4147	105.879
223.503	951.45	-2.6125	-289.4241	105.894
223.628	951.45	-2.6127	-289.4392	105.901
223.753	951.45	-2.6128	-289.4589	105.910
223.878	951.45	-2.6130	-289.4816	105.919
224.003	951.45	-2.6134	-289.5213	105.928
224.128	951.45	-2.6136	-289.5405	105.948
224.253	951.45	-2.6139	-289.5715	105.958
224.378	951.45	-2.6139	-289.5794	105.974
224.503	951.45	-2.6141	-289.5972	105.987
224.628	951.45	-2.6143	-289.6170	105.996
224.753	951.45	-2.6146	-289.6506	106.007
224.878	951.45	-2.6148	-289.6750	106.023
225.003	951.45	-2.6151	-289.7102	106.030
225.128	951.45	-2.6154	-289.7428	106.036
225.253	951.45	-2.6156	-289.7607	106.046
225.378	951.45	-2.6156	-289.7620	106.062
225.503	951.45	-2.6158	-289.7922	106.077
225.628	951.45	-2.6162	-289.8360	106.089
225.753	951.45	-2.6164	-289.8574	106.104
225.878	951.45	-2.6167	-289.8877	106.112
226.003	951.45	-2.6169	-289.9145	106.123
226.128	951.45	-2.6171	-289.9315	106.134
226.253	951.45	-2.6172	-289.9442	106.143
226.378	951.45	-2.6173	-289.9573	106.153
226.503	951.45	-2.6174	-289.9699	106.159
226.628	951.45	-2.6177	-289.9955	106.161
226.753	951.45	-2.6180	-290.0327	106.173
226.878	951.45	-2.6184	-290.0712	106.177
227.003	951.45	-2.6187	-290.1104	106.188
227.128	951.45	-2.6189	-290.1286	106.204
227.253	951.45	-2.6191	-290.1480	106.217
227.378	951.46	-2.6194	-290.1882	106.226
227.503	951.46	-2.6198	-290.2290	106.234
227.628	951.46	-2.6200	-290.2557	106.245
227.753	951.46	-2.6202	-290.2745	106.251
227.878	951.46	-2.6203	-290.2858	106.263
228.003	951.46	-2.6207	-290.3289	106.275
228.128	951.46	-2.6209	-290.3546	106.291
228.253	951.46	-2.6213	-290.3923	106.307
228.378	951.46	-2.6216	-290.4298	106.322
228.503	951.46	-2.6218	-290.4476	106.341
228.628	951.46	-2.6219	-290.4604	106.346
228.753	951.46	-2.6219	-290.4664	106.349
228.878	951.46	-2.6221	-290.4799	106.354
229.003	951.46	-2.6222	-290.5002	106.367
229.128	951.46	-2.6224	-290.5228	106.379
229.253	951.46	-2.6226	-290.5425	106.391
229.378	951.46	-2.6228	-290.5616	106.403
229.503	951.46	-2.6228	-290.5641	106.418
229.628	951.46	-2.6229	-290.5757	106.430
229.753	951.46	-2.6231	-290.5952	106.438
229.878	951.46	-2.6232	-290.6057	106.449
230.003	951.46	-2.6234	-290.6325	106.462
230.128	951.46	-2.6236	-290.6563	106.474
230.253	951.46	-2.6239	-290.6826	106.481
230.378	951.46	-2.6244	-290.7394	106.493
230.503	951.46	-2.6249	-290.7909	106.503
230.628	951.46	-2.6251	-290.8146	106.514
230.753	951.46	-2.6254	-290.8454	106.521
230.878	951.46	-2.6254	-290.8481	106.524
231.003	951.46	-2.6256	-290.8745	106.532
231.128	951.46	-2.6257	-290.8866	106.545
231.253	951.46	-2.6259	-290.9043	106.558
231.378	951.46	-2.6260	-290.9161	106.570
231.503	951.46	-2.6261	-290.9338	106.575
231.628	951.46	-2.6265	-290.9734	106.583
231.753	951.46	-2.6266	-290.9845	106.594
231.878	951.47	-2.6269	-291.0137	106.609
232.003	951.47	-2.6271	-291.0359	106.614
232.128	951.46	-2.6274	-291.0688	106.617
232.253	951.46	-2.6275	-291.0871	106.627
232.378	951.46	-2.6278	-291.1199	106.641
232.503	951.47	-2.6281	-291.1455	106.649
232.628	951.47	-2.6282	-291.1640	106.642
232.753	951.46	-2.6284	-291.1830	106.642
232.878	951.46	-2.6285	-291.1979	106.647
233.003	951.46	-2.6287	-291.2178	106.661
233.128	951.47	-2.6289	-291.2400	106.675
233.253	951.46	-2.6292	-291.2738	106.683
233.378	951.47	-2.6294	-291.2961	106.692
233.503	951.47	-2.6293	-291.2871	106.696
233.628	951.47	-2.6295	-291.3037	106.705
233.753	951.47	-2.6298	-291.3361	106.709
233.878	951.47	-2.6299	-291.3503	106.709
234.003	951.47	-2.6301	-291.3678	106.715
234.128	951.47	-2.6304	-291.4010	106.720
234.253	951.47	-2.6308	-291.4491	106.731
234.378	951.47	-2.6310	-291.4729	106.742
234.503	951.47	-2.6312	-291.4960	106.743
234.628	951.47	-2.6314	-291.5123	106.747
234.753	951.47	-2.6315	-291.5311	106.756
234.878	951.47	-2.6317	-291.5467	106.760
235.003	951.47	-2.6318	-291.5645	106.766
235.128	951.47	-2.6320	-291.5795	106.776
235.253	951.47	-2.6320	-291.5816	106.787
235.378	951.47	-2.6322	-291.6024	106.799
235.503	951.47	-2.6322	-291.6054	106.807
235.628	951.47	-2.6325	-291.6321	106.807
235.753	951.47	-2.6328	-291.6655	106.802
235.878	951.47	-2.6330	-291.6976	106.815
236.003	951.47	-2.6333	-291.7266	106.824
236.128	951.47	-2.6334	-291.7397	106.839
236.253	951.47	-2.6337	-291.7665	106.850
236.378	951.47	-2.6338	-291.7801	106.860
236.503	951.47	-2.6340	-291.8020	106.869
236.620		-2.6342	-291.8230

[step]
Equilibrate 30.00 °C
Time	Temperature	Weight	Weight	Heat Flow
min	°C	%	µg	mW