Folder: tga_data_analysis/example/intro_tga_data_analysis

Note: README.md
# PyTGA - Thermogravimetric Analysis in Python

## Overview
PyTGA is a Python module designed for conducting and analyzing Thermogravimetric Analysis (TGA) experiments. It offers tools for loading, processing, and analyzing TGA data, focusing on proximate and oxidation analysis, solid distillation analysis, and deconvolution analysis.

## Features
- **Data Loading**: Supports loading TGA data from files.
- **Proximate Analysis**: Calculates moisture, ash, and volatile matter.
- **Oxidation Analysis**: Computes Ti, Tp, Tb, etc.
- **Solid Distillation Analysis**: Analyzes solid distillation over time.
- **Deconvolution Analysis**: Deconvolutes TGA curves for peak analysis.
- **Plotting and Visualization**: Functions for TGA data visualization.

File: CLSOx5_1.txt
Time	Temperature	Weight	Weight	Heat Flow
min	°C	%	µg	mW
0.003		100.0004	18762.1
0.037		100.0025	18762.5
0.070	18.54	100.0038	18762.8	-16.448
0.103	18.55	100.0043	18762.8	-16.445
0.137	18.55	100.0038	18762.8	-16.444
0.170	18.56	100.0023	18762.5	-16.444
0.203	18.58	99.9995	18761.9	-16.446
0.237	18.59	99.9954	18761.2	-16.449
0.270	18.62	99.9901	18760.2	-16.454
0.303	18.65	99.9832	18758.9	-16.460
0.337	18.69	99.9747	18757.3	-16.462
0.370	18.75	99.9651	18755.5	-16.462
0.403	18.82	99.9553	18753.7	-16.459
0.437	18.90	99.9457	18751.9	-16.447
0.470	19.00	99.9364	18750.1	-16.424
0.503	19.11	99.9276	18748.5	-16.392
0.537	19.23	99.9192	18746.9	-16.353
0.570	19.37	99.9113	18745.4	-16.305
0.603	19.53	99.9039	18744	-16.247
0.637	19.70	99.8968	18742.7	-16.182
0.670	19.88	99.8901	18741.4	-16.107
0.703	20.08	99.8837	18740.2	-16.026
0.737	20.29	99.8777	18739.1	-15.937
0.770	20.52	99.8719	18738	-15.840
0.803	20.76	99.8664	18737	-15.735
0.837	21.01	99.8610	18736	-15.622
0.870	21.27	99.8559	18735	-15.503
0.903	21.55	99.8510	18734.1	-15.375
0.937	21.84	99.8462	18733.2	-15.239
0.970	22.13	99.8416	18732.3	-15.089
1.003	22.44	99.8371	18731.5	-14.928
1.037	22.77	99.8327	18730.7	-14.751
1.070	23.10	99.8283	18729.8	-14.564
1.103	23.43	99.8239	18729	-14.372
1.137	23.78	99.8195	18728.2	-14.171
1.170	24.14	99.8150	18727.3	-13.961
1.203	24.50	99.8106	18726.5	-13.737
1.237	24.87	99.8060	18725.6	-13.503
1.270	25.25	99.8013	18724.8	-13.260
1.303	25.63	99.7964	18723.8	-13.011
1.337	26.02	99.7913	18722.9	-12.758
1.370	26.41	99.7861	18721.9	-12.502
1.403	26.81	99.7806	18720.9	-12.237
1.437	27.22	99.7750	18719.8	-11.968
1.470	27.63	99.7691	18718.7	-11.694
1.503	28.04	99.7630	18717.6	-11.419
1.537	28.45	99.7567	18716.4	-11.141
1.570	28.87	99.7502	18715.2	-10.864
1.603	29.29	99.7435	18713.9	-10.585
1.637	29.71	99.7366	18712.6	-10.305
1.670	30.13	99.7294	18711.3	-10.022
1.703	30.56	99.7221	18709.9	-9.741
1.737	30.98	99.7145	18708.5	-9.457
1.770	31.41	99.7067	18707	-9.175
1.803	31.84	99.6986	18705.5	-8.894
1.837	32.26	99.6904	18704	-8.615
1.870	32.69	99.6819	18702.4	-8.337
1.903	33.11	99.6732	18700.7	-8.062
1.937	33.53	99.6643	18699.1	-7.788
1.970	33.96	99.6552	18697.4	-7.515
2.003	34.38	99.6459	18695.6	-7.246
2.037	34.80	99.6363	18693.8	-6.979
2.070	35.22	99.6266	18692	-6.714
2.103	35.63	99.6165	18690.1	-6.452
2.137	36.05	99.6063	18688.2	-6.191
2.170	36.46	99.5958	18686.2	-5.934
2.203	36.87	99.5851	18684.2	-5.680
2.237	37.27	99.5741	18682.1	-5.431
2.270	37.68	99.5629	18680	-5.184
2.303	38.08	99.5515	18677.9	-4.940
2.337	38.48	99.5399	18675.7	-4.699
2.370	38.88	99.5279	18673.5	-4.464
2.403	39.28	99.5158	18671.2	-4.232
2.437	39.67	99.5033	18668.9	-4.002
2.470	40.06	99.4907	18666.5	-3.775
2.503	40.44	99.4777	18664.1	-3.551
2.537	40.83	99.4646	18661.6	-3.331
2.570	41.21	99.4511	18659.1	-3.115
2.603	41.59	99.4375	18656.5	-2.901
2.637	41.97	99.4235	18653.9	-2.692
2.670	42.34	99.4094	18651.2	-2.485
2.703	42.72	99.3949	18648.5	-2.283
2.737	43.09	99.3803	18645.8	-2.083
2.770	43.45	99.3653	18643	-1.888
2.803	43.82	99.3502	18640.1	-1.695
2.837	44.18	99.3348	18637.2	-1.502
2.870	44.54	99.3191	18634.3	-1.314
2.903	44.90	99.3032	18631.3	-1.128
2.937	45.26	99.2870	18628.3	-0.944
2.970	45.62	99.2706	18625.2	-0.761
3.003	45.97	99.2539	18622.1	-0.583
3.037	46.32	99.2371	18618.9	-0.409
3.070	46.67	99.2200	18615.7	-0.235
3.103	47.02	99.2026	18612.4	-0.063
3.137	47.37	99.1851	18609.1	0.104
3.170	47.72	99.1673	18605.8	0.270
3.203	48.06	99.1492	18602.4	0.436
3.237	48.41	99.1310	18599	0.601
3.270	48.75	99.1126	18595.6	0.762
3.303	49.10	99.0940	18592.1	0.922
3.337	49.44	99.0751	18588.5	1.080
3.370	49.78	99.0560	18584.9	1.237
3.403	50.12	99.0367	18581.3	1.393
3.437	50.46	99.0172	18577.7	1.550
3.470	50.80	98.9975	18574	1.704
3.503	51.14	98.9776	18570.2	1.858
3.537	51.48	98.9573	18566.4	2.008
3.570	51.82	98.9369	18562.6	2.158
3.603	52.15	98.9161	18558.7	2.310
3.637	52.49	98.8950	18554.7	2.460
3.670	52.83	98.8737	18550.7	2.609
3.703	53.17	98.8521	18546.7	2.756
3.737	53.50	98.8306	18542.6	2.904
3.770	53.84	98.8088	18538.5	3.051
3.803	54.18	98.7868	18534.4	3.197
3.837	54.52	98.7646	18530.3	3.341
3.870	54.85	98.7420	18526	3.486
3.903	55.19	98.7191	18521.7	3.629
3.937	55.53	98.6963	18517.4	3.775
3.970	55.87	98.6733	18513.1	3.920
4.003	56.21	98.6503	18508.8	4.062
4.037	56.55	98.6271	18504.5	4.205
4.070	56.88	98.6040	18500.1	4.349
4.103	57.22	98.5805	18495.7	4.493
4.137	57.56	98.5569	18491.3	4.636
4.170	57.90	98.5332	18486.9	4.780
4.203	58.24	98.5097	18482.4	4.924
4.237	58.58	98.4859	18478	5.067
4.270	58.93	98.4620	18473.5	5.211
4.303	59.27	98.4384	18469.1	5.352
4.337	59.61	98.4149	18464.7	5.497
4.370	59.95	98.3913	18460.2	5.643
4.403	60.29	98.3674	18455.7	5.790
4.437	60.64	98.3438	18451.3	5.936
4.470	60.98	98.3201	18446.9	6.082
4.503	61.32	98.2966	18442.4	6.228
4.537	61.67	98.2730	18438	6.371
4.570	62.01	98.2493	18433.6	6.513
4.603	62.36	98.2256	18429.1	6.658
4.637	62.70	98.2022	18424.7	6.805
4.670	63.05	98.1789	18420.4	6.952
4.703	63.39	98.1554	18416	7.098
4.737	63.74	98.1321	18411.6	7.244
4.770	64.09	98.1088	18407.2	7.391
4.803	64.43	98.0856	18402.9	7.538
4.837	64.78	98.0625	18398.5	7.684
4.870	65.13	98.0395	18394.2	7.831
4.903	65.48	98.0166	18389.9	7.978
4.937	65.82	97.9936	18385.6	8.124
4.970	66.17	97.9707	18381.3	8.272
5.003	66.52	97.9480	18377	8.422
5.037	66.87	97.9254	18372.8	8.569
5.070	67.22	97.9028	18368.6	8.717
5.103	67.57	97.8802	18364.3	8.864
5.137	67.91	97.8578	18360.1	9.013
5.170	68.26	97.8358	18356	9.160
5.203	68.61	97.8138	18351.9	9.307
5.237	68.96	97.7918	18347.7	9.454
5.270	69.32	97.7701	18343.7	9.603
5.303	69.67	97.7487	18339.7	9.755
5.337	70.02	97.7272	18335.6	9.905
5.370	70.37	97.7056	18331.6	10.056
5.403	70.72	97.6838	18327.5	10.205
5.437	71.07	97.6622	18323.4	10.353
5.470	71.42	97.6408	18319.4	10.503
5.503	71.77	97.6196	18315.4	10.655
5.537	72.12	97.5985	18311.5	10.806
5.570	72.48	97.5777	18307.6	10.956
5.603	72.83	97.5569	18303.7	11.106
5.637	73.18	97.5361	18299.8	11.257
5.670	73.53	97.5153	18295.9	11.406
5.703	73.88	97.4946	18292	11.556
5.737	74.24	97.4741	18288.1	11.707
5.770	74.59	97.4535	18284.3	11.860
5.803	74.94	97.4331	18280.4	12.009
5.837	75.29	97.4128	18276.6	12.159
5.870	75.64	97.3925	18272.8	12.309
5.903	76.00	97.3723	18269	12.463
5.937	76.35	97.3521	18265.2	12.615
5.970	76.70	97.3321	18261.5	12.766
6.003	77.06	97.3121	18257.7	12.916
6.037	77.41	97.2923	18254	13.068
6.070	77.76	97.2727	18250.3	13.222
6.103	78.11	97.2532	18246.7	13.376
6.137	78.47	97.2338	18243	13.527
6.170	78.82	97.2145	18239.4	13.678
6.203	79.17	97.1954	18235.9	13.827
6.237	79.52	97.1765	18232.3	13.978
6.270	79.87	97.1578	18228.8	14.129
6.303	80.23	97.1392	18225.3	14.280
6.337	80.58	97.1207	18221.8	14.431
6.370	80.93	97.1024	18218.4	14.583
6.403	81.28	97.0844	18215	14.733
6.437	81.64	97.0665	18211.7	14.884
6.470	81.99	97.0487	18208.3	15.037
6.503	82.34	97.0312	18205	15.188
6.537	82.69	97.0138	18201.8	15.339
6.570	83.04	96.9966	18198.5	15.489
6.603	83.40	96.9796	18195.4	15.640
6.637	83.75	96.9627	18192.2	15.790
6.670	84.10	96.9461	18189.1	15.941
6.703	84.45	96.9296	18186	16.093
6.737	84.81	96.9133	18182.9	16.245
6.770	85.16	96.8972	18179.9	16.396
6.803	85.51	96.8813	18176.9	16.546
6.837	85.86	96.8657	18174	16.693
6.870	86.21	96.8502	18171.1	16.842
6.903	86.56	96.8349	18168.2	16.992
6.937	86.92	96.8198	18165.4	17.144
6.970	87.27	96.8049	18162.6	17.296
7.003	87.62	96.7903	18159.8	17.446
7.037	87.97	96.7758	18157.1	17.595
7.070	88.33	96.7615	18154.4	17.745
7.103	88.68	96.7473	18151.8	17.893
7.137	89.03	96.7334	18149.2	18.044
7.170	89.38	96.7197	18146.6	18.196
7.203	89.73	96.7062	18144.1	18.344
7.237	90.09	96.6929	18141.6	18.493
7.270	90.44	96.6798	18139.1	18.643
7.303	90.79	96.6669	18136.7	18.792
7.337	91.14	96.6542	18134.3	18.939
7.370	91.50	96.6418	18132	19.086
7.403	91.85	96.6295	18129.7	19.234
7.437	92.20	96.6174	18127.4	19.378
7.470	92.55	96.6055	18125.2	19.523
7.503	92.90	96.5938	18123	19.671
7.537	93.25	96.5824	18120.8	19.819
7.570	93.61	96.5711	18118.7	19.966
7.603	93.96	96.5601	18116.6	20.114
7.637	94.31	96.5492	18114.6	20.259
7.670	94.66	96.5385	18112.6	20.403
7.703	95.02	96.5280	18110.6	20.548
7.737	95.37	96.5177	18108.7	20.694
7.770	95.72	96.5076	18106.8	20.838
7.803	96.07	96.4977	18104.9	20.980
7.837	96.42	96.4879	18103.1	21.122
7.870	96.77	96.4784	18101.3	21.263
7.903	97.13	96.4690	18099.6	21.406
7.937	97.48	96.4599	18097.8	21.548
7.970	97.83	96.4509	18096.2	21.688
8.003	98.18	96.4421	18094.5	21.828
8.037	98.53	96.4335	18092.9	21.967
8.070	98.88	96.4250	18091.3	22.106
8.103	99.24	96.4167	18089.8	22.247
8.137	99.59	96.4087	18088.2	22.386
8.170	99.94	96.4007	18086.8	22.527
8.203	100.29	96.3930	18085.3	22.666
8.237	100.64	96.3855	18083.9	22.805
8.270	100.99	96.3781	18082.5	22.944
8.303	101.34	96.3709	18081.1	23.082
8.337	101.69	96.3638	18079.8	23.219
8.370	102.05	96.3569	18078.5	23.355
8.403	102.40	96.3502	18077.3	23.492
8.437	102.75	96.3437	18076	23.627
8.470	103.10	96.3373	18074.8	23.763
8.503	103.45	96.3310	18073.7	23.898
8.537	103.80	96.3250	18072.5	24.031
8.570	104.15	96.3191	18071.4	24.165
8.603	104.50	96.3133	18070.3	24.300
8.637	104.85	96.3077	18069.3	24.433
8.670	105.20	96.3023	18068.3	24.564
8.703	105.55	96.2970	18067.3	24.694
8.737	105.90	96.2918	18066.3	24.822
8.770	106.25	96.2868	18065.4	24.951
8.803	106.60	96.2820	18064.5	25.082
8.837	106.96	96.2773	18063.6	25.214
8.870	107.31	96.2728	18062.7	25.343
8.903	107.66	96.2683	18061.9	25.471
8.937	108.01	96.2640	18061.1	25.599
8.970	108.36	96.2598	18060.3	25.726
9.003	108.71	96.2558	18059.6	25.852
9.037	109.06	96.2520	18058.8	25.978
9.070	109.41	96.2482	18058.1	26.104
9.078	109.49	96.2473	18058	26.136

[step]
Isothermal 30.0 min
Time	Temperature	Weight	Weight	Heat Flow
min	°C	%	µg	mW
9.087	109.58	96.2463	18057.8	26.168
9.203	110.80	96.2342	18055.5	26.597
9.320	111.96	96.2234	18053.5	26.993
9.437	113.01	96.2143	18051.8	27.325
9.553	113.93	96.2068	18050.4	27.578
9.670	114.67	96.2008	18049.2	27.723
9.787	115.25	96.1963	18048.4	27.760
9.903	115.64	96.1920	18047.6	27.712
10.020	115.85	96.1890	18047	27.530
10.137	115.92	96.1868	18046.6	27.281
10.253	115.85	96.1852	18046.3	26.977
10.370	115.70	96.1845	18046.2	26.640
10.487	115.49	96.1841	18046.1	26.292
10.603	115.26	96.1834	18046	25.952
10.720	115.02	96.1825	18045.8	25.641
10.837	114.79	96.1816	18045.6	25.362
10.953	114.58	96.1806	18045.4	25.126
11.070	114.39	96.1796	18045.3	24.927
11.187	114.24	96.1787	18045.1	24.774
11.303	114.11	96.1777	18044.9	24.652
11.420	114.03	96.1769	18044.7	24.570
11.537	113.98	96.1760	18044.6	24.521
11.653	113.96	96.1752	18044.4	24.505
11.770	113.97	96.1745	18044.3	24.498
11.887	114.02	96.1738	18044.2	24.506
12.003	114.08	96.1731	18044	24.543
12.120	114.16	96.1726	18043.9	24.602
12.237	114.25	96.1721	18043.9	24.664
12.353	114.35	96.1718	18043.8	24.720
12.470	114.46	96.1716	18043.8	24.778
12.587	114.56	96.1714	18043.7	24.828
12.703	114.66	96.1713	18043.7	24.883
12.820	114.76	96.1712	18043.7	24.916
12.937	114.85	96.1712	18043.7	24.954
13.053	114.93	96.1712	18043.7	24.983
13.170	114.99	96.1712	18043.7	25.001
13.287	115.05	96.1712	18043.7	25.016
13.403	115.10	96.1712	18043.7	25.023
13.520	115.14	96.1712	18043.7	25.030
13.637	115.17	96.1712	18043.7	25.031
13.753	115.19	96.1712	18043.7	25.027
13.870	115.21	96.1713	18043.7	25.018
13.987	115.22	96.1712	18043.7	25.003
14.103	115.23	96.1713	18043.7	24.986
14.220	115.23	96.1712	18043.7	24.969
14.337	115.23	96.1713	18043.7	24.949
14.453	115.23	96.1712	18043.7	24.930
14.570	115.23	96.1712	18043.7	24.913
14.687	115.23	96.1711	18043.7	24.896
14.803	115.23	96.1710	18043.7	24.881
14.920	115.23	96.1710	18043.6	24.866
15.037	115.24	96.1709	18043.6	24.853
15.153	115.24	96.1708	18043.6	24.840
15.270	115.25	96.1707	18043.6	24.832
15.387	115.25	96.1707	18043.6	24.824
15.503	115.26	96.1706	18043.6	24.816
15.620	115.27	96.1705	18043.6	24.811
15.737	115.28	96.1704	18043.5	24.805
15.853	115.29	96.1703	18043.5	24.800
15.970	115.30	96.1702	18043.5	24.794
16.087	115.31	96.1703	18043.5	24.790
16.203	115.32	96.1703	18043.5	24.787
16.320	115.33	96.1703	18043.5	24.782
16.437	115.34	96.1703	18043.5	24.778
16.553	115.36	96.1701	18043.5	24.775
16.670	115.36	96.1701	18043.5	24.772
16.787	115.37	96.1700	18043.5	24.768
16.903	115.38	96.1699	18043.4	24.764
17.020	115.39	96.1700	18043.5	24.758
17.137	115.39	96.1700	18043.5	24.751
17.253	115.40	96.1699	18043.4	24.747
17.370	115.40	96.1699	18043.4	24.741
17.487	115.40	96.1698	18043.4	24.734
17.603	115.41	96.1698	18043.4	24.724
17.720	115.41	96.1697	18043.4	24.715
17.837	115.41	96.1696	18043.4	24.707
17.953	115.41	96.1695	18043.4	24.699
18.070	115.41	96.1695	18043.4	24.689
18.187	115.41	96.1695	18043.4	24.681
18.303	115.41	96.1695	18043.4	24.672
18.420	115.41	96.1695	18043.4	24.661
18.537	115.41	96.1695	18043.4	24.652
18.653	115.41	96.1694	18043.4	24.645
18.770	115.41	96.1694	18043.3	24.635
18.887	115.41	96.1693	18043.3	24.627
19.003	115.41	96.1693	18043.3	24.618
19.120	115.41	96.1694	18043.4	24.609
19.237	115.41	96.1694	18043.3	24.601
19.353	115.42	96.1694	18043.3	24.592
19.470	115.42	96.1693	18043.3	24.584
19.587	115.42	96.1694	18043.3	24.575
19.703	115.42	96.1692	18043.3	24.565
19.820	115.42	96.1693	18043.3	24.559
19.937	115.42	96.1692	18043.3	24.553
20.053	115.42	96.1692	18043.3	24.545
20.170	115.42	96.1692	18043.3	24.537
20.287	115.42	96.1691	18043.3	24.530
20.403	115.42	96.1691	18043.3	24.520
20.520	115.42	96.1691	18043.3	24.514
20.637	115.42	96.1690	18043.3	24.505
20.753	115.42	96.1690	18043.3	24.497
20.870	115.42	96.1691	18043.3	24.491
20.987	115.42	96.1691	18043.3	24.481
21.103	115.41	96.1690	18043.3	24.470
21.220	115.41	96.1690	18043.3	24.463
21.337	115.41	96.1690	18043.3	24.455
21.453	115.41	96.1691	18043.3	24.447
21.570	115.41	96.1691	18043.3	24.439
21.687	115.41	96.1690	18043.3	24.429
21.803	115.41	96.1689	18043.3	24.423
21.920	115.41	96.1690	18043.3	24.415
22.037	115.41	96.1690	18043.3	24.407
22.153	115.41	96.1690	18043.3	24.398
22.270	115.41	96.1690	18043.3	24.392
22.387	115.40	96.1689	18043.3	24.382
22.503	115.40	96.1688	18043.2	24.373
22.620	115.40	96.1688	18043.2	24.363
22.737	115.40	96.1687	18043.2	24.357
22.853	115.40	96.1687	18043.2	24.350
22.970	115.40	96.1687	18043.2	24.341
23.087	115.40	96.1688	18043.2	24.333
23.203	115.39	96.1688	18043.2	24.322
23.320	115.39	96.1687	18043.2	24.315
23.437	115.39	96.1686	18043.2	24.306
23.553	115.39	96.1685	18043.2	24.298
23.670	115.39	96.1686	18043.2	24.290
23.787	115.39	96.1686	18043.2	24.282
23.903	115.39	96.1685	18043.2	24.274
24.020	115.39	96.1685	18043.2	24.267
24.137	115.39	96.1685	18043.2	24.261
24.253	115.38	96.1685	18043.2	24.254
24.370	115.38	96.1685	18043.2	24.245
24.487	115.38	96.1685	18043.2	24.237
24.603	115.38	96.1684	18043.2	24.229
24.720	115.38	96.1684	18043.2	24.218
24.837	115.38	96.1684	18043.2	24.212
24.953	115.38	96.1684	18043.2	24.205
25.070	115.38	96.1683	18043.1	24.197
25.187	115.38	96.1683	18043.1	24.193
25.303	115.37	96.1683	18043.2	24.188
25.420	115.37	96.1683	18043.1	24.179
25.537	115.37	96.1682	18043.1	24.171
25.653	115.37	96.1682	18043.1	24.163
25.770	115.37	96.1682	18043.1	24.156
25.887	115.37	96.1681	18043.1	24.150
26.003	115.37	96.1681	18043.1	24.144
26.120	115.36	96.1681	18043.1	24.138
26.237	115.37	96.1683	18043.1	24.130
26.353	115.36	96.1682	18043.1	24.122
26.470	115.36	96.1682	18043.1	24.115
26.587	115.36	96.1681	18043.1	24.107
26.703	115.36	96.1681	18043.1	24.100
26.820	115.36	96.1682	18043.1	24.093
26.937	115.36	96.1682	18043.1	24.087
27.053	115.36	96.1682	18043.1	24.080
27.170	115.36	96.1681	18043.1	24.076
27.287	115.35	96.1680	18043.1	24.070
27.403	115.35	96.1681	18043.1	24.061
27.520	115.35	96.1681	18043.1	24.053
27.637	115.35	96.1681	18043.1	24.045
27.753	115.35	96.1681	18043.1	24.035
27.870	115.35	96.1681	18043.1	24.028
27.987	115.35	96.1681	18043.1	24.020
28.103	115.35	96.1680	18043.1	24.014
28.220	115.35	96.1680	18043.1	24.006
28.337	115.34	96.1680	18043.1	23.999
28.453	115.34	96.1680	18043.1	23.994
28.570	115.34	96.1680	18043.1	23.987
28.687	115.34	96.1680	18043.1	23.984
28.803	115.34	96.1680	18043.1	23.977
28.920	115.34	96.1680	18043.1	23.970
29.037	115.34	96.1680	18043.1	23.965
29.153	115.34	96.1680	18043.1	23.958
29.270	115.33	96.1679	18043.1	23.953
29.387	115.33	96.1678	18043.1	23.946
29.503	115.33	96.1679	18043.1	23.937
29.620	115.33	96.1679	18043.1	23.928
29.737	115.33	96.1680	18043.1	23.922
29.853	115.33	96.1680	18043.1	23.915
29.970	115.33	96.1680	18043.1	23.908
30.087	115.33	96.1679	18043.1	23.902
30.203	115.33	96.1679	18043.1	23.897
30.320	115.33	96.1679	18043.1	23.893
30.437	115.33	96.1679	18043.1	23.888
30.553	115.33	96.1678	18043.1	23.882
30.670	115.32	96.1677	18043	23.875
30.787	115.32	96.1677	18043	23.866
30.903	115.32	96.1677	18043	23.861
31.020	115.32	96.1677	18043	23.854
31.137	115.32	96.1677	18043	23.846
31.253	115.32	96.1677	18043	23.840
31.370	115.32	96.1677	18043	23.836
31.487	115.31	96.1677	18043	23.830
31.603	115.31	96.1677	18043	23.824
31.720	115.31	96.1677	18043	23.819
31.837	115.31	96.1677	18043	23.813
31.953	115.31	96.1677	18043	23.807
32.070	115.31	96.1677	18043	23.803
32.187	115.31	96.1677	18043	23.795
32.303	115.31	96.1676	18043	23.788
32.420	115.31	96.1675	18043	23.783
32.537	115.31	96.1674	18043	23.777
32.653	115.31	96.1673	18043	23.772
32.770	115.30	96.1674	18043	23.765
32.887	115.30	96.1674	18043	23.761
33.003	115.30	96.1674	18043	23.754
33.120	115.30	96.1674	18043	23.749
33.237	115.30	96.1674	18043	23.743
33.353	115.30	96.1673	18043	23.737
[...]
210.462	950.82	-0.1040	-19.5094	101.336
210.587	950.84	-0.1042	-19.5500	101.414
210.712	950.87	-0.1043	-19.5758	101.478
210.837	950.89	-0.1045	-19.6102	101.547
210.962	950.92	-0.1047	-19.6386	101.605
211.087	950.94	-0.1048	-19.6679	101.667
211.212	950.96	-0.1049	-19.6893	101.731
211.337	950.98	-0.1051	-19.7107	101.779
211.462	951.00	-0.1052	-19.7287	101.822
211.587	951.02	-0.1053	-19.7507	101.862
211.712	951.03	-0.1054	-19.7705	101.907
211.837	951.05	-0.1056	-19.8044	101.946
211.962	951.06	-0.1056	-19.8194	101.986
212.087	951.08	-0.1058	-19.8415	102.023
212.212	951.09	-0.1059	-19.8611	102.052
212.337	951.11	-0.1061	-19.8998	102.074
212.462	951.12	-0.1063	-19.9383	102.107
212.587	951.13	-0.1065	-19.9735	102.145
212.712	951.14	-0.1066	-19.9926	102.169
212.837	951.15	-0.1067	-20.0109	102.195
212.962	951.16	-0.1067	-20.0262	102.221
213.087	951.17	-0.1069	-20.0545	102.250
213.212	951.18	-0.1070	-20.0700	102.271
213.337	951.19	-0.1072	-20.1063	102.304
213.462	951.20	-0.1073	-20.1290	102.326
213.587	951.21	-0.1075	-20.1629	102.341
213.712	951.22	-0.1076	-20.1967	102.360
213.837	951.22	-0.1079	-20.2358	102.373
213.962	951.23	-0.1080	-20.2614	102.395
214.087	951.24	-0.1080	-20.2714	102.418
214.212	951.25	-0.1081	-20.2843	102.435
214.337	951.25	-0.1083	-20.3122	102.452
214.462	951.26	-0.1083	-20.3283	102.471
214.587	951.26	-0.1084	-20.3448	102.493
214.712	951.27	-0.1085	-20.3633	102.511
214.837	951.27	-0.1087	-20.3938	102.520
214.962	951.28	-0.1088	-20.4060	102.528
215.087	951.28	-0.1089	-20.4260	102.543
215.212	951.29	-0.1090	-20.4547	102.555
215.337	951.29	-0.1091	-20.4706	102.572
215.462	951.30	-0.1093	-20.5053	102.585
215.587	951.30	-0.1095	-20.5430	102.600
215.712	951.31	-0.1097	-20.5731	102.619
215.837	951.31	-0.1097	-20.5887	102.626
215.962	951.31	-0.1098	-20.6070	102.630
216.087	951.31	-0.1100	-20.6342	102.640
216.212	951.32	-0.1101	-20.6609	102.641
216.337	951.32	-0.1101	-20.6645	102.651
216.462	951.32	-0.1102	-20.6829	102.656
216.587	951.32	-0.1103	-20.6992	102.660
216.712	951.33	-0.1105	-20.7356	102.663
216.837	951.33	-0.1107	-20.7608	102.665
216.962	951.33	-0.1107	-20.7756	102.663
217.087	951.33	-0.1109	-20.7997	102.667
217.212	951.34	-0.1110	-20.8266	102.672
217.337	951.34	-0.1111	-20.8441	102.683
217.462	951.34	-0.1112	-20.8598	102.703
217.587	951.34	-0.1113	-20.8759	102.711
217.712	951.34	-0.1115	-20.9189	102.719
217.837	951.35	-0.1116	-20.9334	102.727
217.962	951.35	-0.1116	-20.9396	102.728
218.087	951.35	-0.1118	-20.9670	102.732
218.212	951.35	-0.1119	-20.9929	102.730
218.337	951.35	-0.1120	-21.0191	102.734
218.462	951.35	-0.1122	-21.0514	102.739
218.587	951.35	-0.1124	-21.0909	102.744
218.712	951.35	-0.1126	-21.1211	102.751
218.837	951.35	-0.1127	-21.1434	102.759
218.962	951.36	-0.1128	-21.1630	102.768
219.087	951.36	-0.1130	-21.2033	102.769
219.212	951.36	-0.1132	-21.2312	102.766
219.337	951.36	-0.1132	-21.2460	102.765
219.462	951.36	-0.1133	-21.2643	102.770
219.587	951.36	-0.1135	-21.2862	102.766
219.712	951.36	-0.1136	-21.3062	102.766
219.837	951.36	-0.1136	-21.3072	102.762
219.962	951.36	-0.1136	-21.3160	102.761
220.087	951.36	-0.1137	-21.3241	102.762
220.212	951.36	-0.1137	-21.3271	102.767
220.337	951.36	-0.1138	-21.3521	102.770
220.462	951.36	-0.1139	-21.3766	102.769
220.587	951.36	-0.1141	-21.4028	102.771
220.712	951.37	-0.1143	-21.4405	102.768
220.837	951.37	-0.1144	-21.4624	102.771
220.962	951.37	-0.1146	-21.4946	102.767
221.087	951.37	-0.1147	-21.5147	102.765
221.212	951.37	-0.1148	-21.5460	102.761
221.337	951.37	-0.1149	-21.5513	102.754
221.462	951.37	-0.1149	-21.5625	102.759
221.587	951.37	-0.1151	-21.5916	102.762
221.712	951.37	-0.1152	-21.6122	102.755
221.837	951.37	-0.1152	-21.6194	102.745
221.962	951.37	-0.1154	-21.6438	102.744
222.087	951.37	-0.1155	-21.6729	102.735
222.212	951.37	-0.1156	-21.6950	102.738
222.337	951.37	-0.1157	-21.7132	102.742
222.462	951.37	-0.1159	-21.7498	102.748
222.587	951.37	-0.1160	-21.7681	102.749
222.712	951.37	-0.1162	-21.8005	102.758
222.837	951.37	-0.1161	-21.7864	102.755
222.962	951.37	-0.1162	-21.7938	102.759
223.087	951.37	-0.1163	-21.8190	102.764
223.212	951.37	-0.1165	-21.8524	102.765
223.337	951.37	-0.1166	-21.8703	102.763
223.462	951.37	-0.1167	-21.8990	102.760
223.587	951.37	-0.1168	-21.9162	102.758
223.712	951.37	-0.1169	-21.9407	102.752
223.837	951.37	-0.1170	-21.9426	102.750
223.962	951.37	-0.1171	-21.9695	102.757
224.087	951.37	-0.1171	-21.9740	102.760
224.212	951.37	-0.1172	-21.9884	102.761
224.337	951.37	-0.1173	-22.0140	102.761
224.462	951.37	-0.1174	-22.0336	102.761
224.587	951.37	-0.1175	-22.0467	102.765
224.712	951.37	-0.1176	-22.0689	102.768
224.837	951.37	-0.1177	-22.0906	102.769
224.962	951.37	-0.1179	-22.1122	102.771
225.087	951.37	-0.1180	-22.1416	102.769
225.212	951.37	-0.1181	-22.1611	102.775
225.337	951.37	-0.1182	-22.1727	102.774
225.462	951.37	-0.1183	-22.1923	102.777
225.587	951.37	-0.1185	-22.2248	102.772
225.712	951.37	-0.1186	-22.2440	102.771
225.837	951.37	-0.1186	-22.2521	102.770
225.962	951.37	-0.1188	-22.2819	102.771
226.087	951.37	-0.1188	-22.2921	102.774
226.212	951.37	-0.1189	-22.3153	102.775
226.337	951.37	-0.1191	-22.3449	102.776
226.462	951.37	-0.1193	-22.3768	102.762
226.587	951.37	-0.1194	-22.4037	102.754
226.712	951.37	-0.1194	-22.4102	102.744
226.837	951.37	-0.1196	-22.4350	102.747
226.962	951.37	-0.1197	-22.4595	102.747
227.087	951.37	-0.1199	-22.4932	102.745
227.212	951.37	-0.1201	-22.5292	102.746
227.337	951.37	-0.1202	-22.5486	102.752
227.462	951.37	-0.1203	-22.5692	102.753
227.587	951.37	-0.1204	-22.5920	102.750
227.712	951.37	-0.1204	-22.5872	102.745
227.837	951.37	-0.1204	-22.5945	102.744
227.962	951.37	-0.1205	-22.6023	102.745
228.087	951.37	-0.1205	-22.6173	102.741
228.212	951.37	-0.1206	-22.6361	102.742
228.337	951.37	-0.1207	-22.6418	102.744
228.462	951.37	-0.1208	-22.6614	102.747
228.587	951.37	-0.1211	-22.7192	102.738
228.712	951.37	-0.1212	-22.7453	102.736
228.837	951.37	-0.1213	-22.7625	102.739
228.962	951.37	-0.1214	-22.7800	102.747
229.087	951.37	-0.1214	-22.7832	102.744
229.212	951.37	-0.1215	-22.8017	102.747
229.337	951.37	-0.1216	-22.8215	102.752
229.462	951.37	-0.1217	-22.8338	102.752
229.587	951.37	-0.1219	-22.8676	102.749
229.712	951.37	-0.1220	-22.8935	102.742
229.837	951.37	-0.1220	-22.8979	102.749
229.962	951.37	-0.1220	-22.8955	102.755
230.087	951.37	-0.1222	-22.9291	102.761
230.212	951.37	-0.1223	-22.9533	102.764
230.337	951.37	-0.1224	-22.9663	102.758
230.462	951.37	-0.1224	-22.9685	102.759
230.587	951.37	-0.1225	-22.9892	102.750
230.712	951.37	-0.1226	-23.0033	102.755
230.837	951.37	-0.1227	-23.0143	102.749
230.962	951.37	-0.1227	-23.0273	102.745
231.087	951.37	-0.1229	-23.0511	102.741
231.212	951.37	-0.1231	-23.0890	102.739
231.337	951.37	-0.1232	-23.1065	102.734
231.462	951.37	-0.1232	-23.1201	102.728
231.587	951.37	-0.1233	-23.1351	102.729
231.712	951.37	-0.1234	-23.1504	102.734
231.837	951.37	-0.1234	-23.1565	102.740
231.962	951.37	-0.1236	-23.1936	102.742
232.087	951.37	-0.1238	-23.2197	102.739
232.212	951.37	-0.1239	-23.2438	102.741
232.337	951.37	-0.1239	-23.2440	102.739
232.462	951.37	-0.1239	-23.2394	102.739
232.587	951.37	-0.1239	-23.2418	102.738
232.712	951.37	-0.1241	-23.2753	102.742
232.837	951.37	-0.1241	-23.2872	102.739
232.962	951.37	-0.1243	-23.3149	102.736
233.087	951.37	-0.1244	-23.3456	102.734
233.212	951.37	-0.1246	-23.3708	102.731
233.337	951.37	-0.1246	-23.3793	102.731
233.462	951.37	-0.1247	-23.3980	102.727
233.587	951.37	-0.1248	-23.4108	102.724
233.712	951.37	-0.1249	-23.4351	102.723
233.837	951.37	-0.1250	-23.4509	102.719
233.962	951.37	-0.1251	-23.4645	102.713
234.087	951.37	-0.1251	-23.4744	102.711
234.212	951.37	-0.1252	-23.4885	102.708
234.337	951.37	-0.1252	-23.4974	102.708
234.462	951.37	-0.1253	-23.5179	102.704
234.587	951.37	-0.1255	-23.5441	102.701
234.712	951.37	-0.1256	-23.5650	102.703
234.837	951.37	-0.1256	-23.5738	102.698
234.962	951.37	-0.1257	-23.5819	102.683
235.087	951.37	-0.1258	-23.5999	102.681
235.212	951.37	-0.1259	-23.6269	102.675
235.337	951.37	-0.1260	-23.6348	102.676
235.462	951.37	-0.1260	-23.6315	102.676
235.587	951.37	-0.1260	-23.6480	102.678
235.712	951.37	-0.1262	-23.6739	102.679
235.837	951.37	-0.1262	-23.6786	102.678
235.962	951.37	-0.1262	-23.6809	102.678
236.087	951.37	-0.1263	-23.7038	102.679
236.212	951.37	-0.1265	-23.7246	102.679
236.337	951.37	-0.1265	-23.7412	102.683
236.462	951.37	-0.1266	-23.7545	102.682
236.587	951.37	-0.1267	-23.7698	102.680
236.712	951.37	-0.1268	-23.7969	102.673
236.837	951.37	-0.1269	-23.8156	102.672
236.962	951.37	-0.1270	-23.8363	102.675
237.078		-0.1272	-23.8574

[step]
Equilibrate 30.00 °C
Time	Temperature	Weight	Weight	Heat Flow
min	°C	%	µg	mW