Folder: tga_data_analysis/example/kas_kinetics

Note: README.md
# PyTGA - Thermogravimetric Analysis in Python

## Overview
PyTGA is a Python module designed for conducting and analyzing Thermogravimetric Analysis (TGA) experiments. It offers tools for loading, processing, and analyzing TGA data, focusing on proximate and oxidation analysis, solid distillation analysis, and deconvolution analysis.

## Features
- **Data Loading**: Supports loading TGA data from files.
- **Proximate Analysis**: Calculates moisture, ash, and volatile matter.
- **Oxidation Analysis**: Computes Ti, Tp, Tb, etc.
- **Solid Distillation Analysis**: Analyzes solid distillation over time.
- **Deconvolution Analysis**: Deconvolutes TGA curves for peak analysis.
- **Plotting and Visualization**: Functions for TGA data visualization.

File: PCOx100_1.txt
Filename	Ox100PC250_1
Instrument name	0650-0369 (192.168.1.2)
Operator	jla278
rundate	12/21/2022
Sample name	Ox100PC250_1
proceduresegments	Select Gas: Gas 2 ; Ramp 10.00 °C/min to 110.00 °C; Isothermal 30.0 min; Ramp 100.00 °C/min to 950.00 °C; Isothermal 5.0 min; Data Off ; Equilibrate 30.00 °C
[step]
Ramp 10.00 °C/min to 110.00 °C
Time	Temperature	Weight	Weight	Heat Flow
min	°C	%	mg	mW
0.003		100.1475	1.3320
0.037		101.0160	1.3435
0.070	23.33	101.5509	1.3506	-27.639
0.103	23.46	101.7040	1.3527	-27.516
0.137	23.59	101.7131	1.3528	-27.411
0.170	23.71	101.7013	1.3526	-27.311
0.203	23.83	101.6889	1.3525	-27.212
0.237	23.96	101.6786	1.3523	-27.119
0.270	24.08	101.6676	1.3522	-27.028
0.303	24.20	101.6529	1.3520	-26.938
0.337	24.32	101.6336	1.3517	-26.849
0.370	24.44	101.6101	1.3514	-26.768
0.403	24.57	101.5827	1.3510	-26.690
0.437	24.70	101.5513	1.3506	-26.616
0.470	24.83	101.5165	1.3502	-26.548
0.503	24.97	101.4789	1.3497	-26.485
0.537	25.12	101.4394	1.3491	-26.429
0.570	25.27	101.3995	1.3486	-26.374
0.603	25.42	101.3609	1.3481	-26.325
0.637	25.59	101.3240	1.3476	-26.271
0.670	25.76	101.2887	1.3471	-26.215
0.703	25.94	101.2547	1.3467	-26.160
0.737	26.12	101.2221	1.3463	-26.108
0.770	26.32	101.1913	1.3458	-26.048
0.803	26.52	101.1620	1.3455	-25.983
0.837	26.73	101.1336	1.3451	-25.919
0.870	26.94	101.1060	1.3447	-25.845
0.903	27.17	101.0783	1.3443	-25.766
0.937	27.40	101.0496	1.3440	-25.680
0.970	27.63	101.0193	1.3436	-25.588
1.003	27.88	100.9882	1.3431	-25.487
1.037	28.13	100.9563	1.3427	-25.373
1.070	28.39	100.9237	1.3423	-25.257
1.103	28.66	100.8907	1.3418	-25.135
1.137	28.93	100.8575	1.3414	-25.004
1.170	29.21	100.8246	1.3410	-24.864
1.203	29.50	100.7925	1.3405	-24.716
1.237	29.79	100.7614	1.3401	-24.564
1.270	30.09	100.7318	1.3397	-24.408
1.303	30.40	100.7029	1.3393	-24.243
1.337	30.71	100.6741	1.3390	-24.073
1.370	31.02	100.6457	1.3386	-23.896
1.403	31.35	100.6177	1.3382	-23.710
1.437	31.67	100.5897	1.3378	-23.521
1.470	32.00	100.5613	1.3375	-23.331
1.503	32.34	100.5326	1.3371	-23.134
1.537	32.68	100.5034	1.3367	-22.930
1.570	33.02	100.4739	1.3363	-22.723
1.603	33.37	100.4441	1.3359	-22.507
1.637	33.72	100.4140	1.3355	-22.288
1.670	34.08	100.3838	1.3351	-22.061
1.703	34.44	100.3537	1.3347	-21.832
1.737	34.80	100.3243	1.3343	-21.597
1.770	35.16	100.2957	1.3339	-21.361
1.803	35.52	100.2670	1.3336	-21.120
1.837	35.89	100.2378	1.3332	-20.879
1.870	36.26	100.2085	1.3328	-20.633
1.903	36.63	100.1794	1.3324	-20.385
1.937	37.00	100.1505	1.3320	-20.129
1.970	37.38	100.1215	1.3316	-19.869
2.003	37.75	100.0921	1.3312	-19.606
2.037	38.13	100.0625	1.3308	-19.341
2.070	38.51	100.0328	1.3304	-19.072
2.103	38.89	100.0033	1.3300	-18.802
2.137	39.26	99.9739	1.3297	-18.530
2.170	39.64	99.9446	1.3293	-18.258
2.203	40.02	99.9157	1.3289	-17.982
2.237	40.40	99.8871	1.3285	-17.704
2.270	40.78	99.8592	1.3281	-17.425
2.303	41.16	99.8318	1.3278	-17.147
2.337	41.54	99.8052	1.3274	-16.868
2.370	41.92	99.7788	1.3271	-16.587
2.403	42.29	99.7526	1.3267	-16.307
2.437	42.67	99.7267	1.3264	-16.022
2.470	43.05	99.7015	1.3260	-15.738
2.503	43.43	99.6771	1.3257	-15.457
2.537	43.80	99.6531	1.3254	-15.176
2.570	44.18	99.6295	1.3251	-14.895
2.603	44.55	99.6061	1.3248	-14.613
2.637	44.92	99.5834	1.3245	-14.333
2.670	45.30	99.5608	1.3242	-14.055
2.703	45.67	99.5379	1.3239	-13.774
2.737	46.04	99.5147	1.3235	-13.496
2.770	46.41	99.4918	1.3232	-13.222
2.803	46.77	99.4692	1.3229	-12.948
2.837	47.14	99.4471	1.3226	-12.676
2.870	47.51	99.4256	1.3224	-12.404
2.903	47.88	99.4042	1.3221	-12.133
2.937	48.24	99.3827	1.3218	-11.862
2.970	48.60	99.3611	1.3215	-11.595
3.003	48.96	99.3400	1.3212	-11.330
3.037	49.32	99.3196	1.3210	-11.064
3.070	49.68	99.3001	1.3207	-10.801
3.103	50.04	99.2812	1.3204	-10.540
3.137	50.40	99.2634	1.3202	-10.281
3.170	50.76	99.2466	1.3200	-10.025
3.203	51.11	99.2307	1.3198	-9.775
3.237	51.47	99.2157	1.3196	-9.520
3.270	51.82	99.2013	1.3194	-9.269
3.303	52.18	99.1872	1.3192	-9.023
3.337	52.53	99.1733	1.3190	-8.780
3.370	52.88	99.1599	1.3188	-8.541
3.403	53.23	99.1466	1.3186	-8.302
3.437	53.58	99.1336	1.3185	-8.064
3.470	53.93	99.1207	1.3183	-7.828
3.503	54.28	99.1086	1.3181	-7.595
3.537	54.63	99.0971	1.3180	-7.366
3.570	54.97	99.0860	1.3178	-7.138
3.603	55.32	99.0749	1.3177	-6.912
3.637	55.67	99.0640	1.3176	-6.690
3.670	56.01	99.0534	1.3174	-6.471
3.703	56.36	99.0432	1.3173	-6.254
3.737	56.70	99.0336	1.3171	-6.040
3.770	57.04	99.0245	1.3170	-5.828
3.803	57.39	99.0158	1.3169	-5.618
3.837	57.73	99.0073	1.3168	-5.412
3.870	58.07	98.9989	1.3167	-5.209
3.903	58.41	98.9907	1.3166	-5.006
3.937	58.76	98.9826	1.3165	-4.805
3.970	59.10	98.9746	1.3164	-4.609
4.003	59.44	98.9665	1.3163	-4.414
4.037	59.78	98.9585	1.3161	-4.220
4.070	60.12	98.9510	1.3160	-4.033
4.103	60.46	98.9440	1.3160	-3.846
4.137	60.80	98.9372	1.3159	-3.660
4.170	61.14	98.9305	1.3158	-3.479
4.203	61.48	98.9238	1.3157	-3.305
4.237	61.82	98.9169	1.3156	-3.129
4.270	62.16	98.9102	1.3155	-2.954
4.303	62.50	98.9037	1.3154	-2.778
4.337	62.84	98.8973	1.3153	-2.609
4.370	63.17	98.8911	1.3153	-2.443
4.403	63.51	98.8848	1.3152	-2.280
4.437	63.85	98.8787	1.3151	-2.118
4.470	64.19	98.8730	1.3150	-1.955
4.503	64.53	98.8673	1.3149	-1.799
4.537	64.87	98.8612	1.3149	-1.641
4.570	65.21	98.8548	1.3148	-1.486
4.603	65.55	98.8487	1.3147	-1.329
4.637	65.89	98.8431	1.3146	-1.180
4.670	66.23	98.8379	1.3145	-1.032
4.703	66.57	98.8328	1.3145	-0.890
4.737	66.91	98.8273	1.3144	-0.749
4.770	67.25	98.8217	1.3143	-0.606
4.803	67.59	98.8160	1.3143	-0.461
4.837	67.93	98.8107	1.3142	-0.326
4.870	68.27	98.8060	1.3141	-0.190
4.903	68.61	98.8017	1.3141	-0.054
4.937	68.95	98.7976	1.3140	0.077
4.970	69.29	98.7932	1.3139	0.203
5.003	69.63	98.7885	1.3139	0.326
5.037	69.97	98.7835	1.3138	0.451
5.070	70.31	98.7787	1.3138	0.574
5.103	70.65	98.7741	1.3137	0.699
5.137	70.99	98.7697	1.3136	0.820
5.170	71.33	98.7650	1.3136	0.938
5.203	71.67	98.7582	1.3135	1.056
5.237	72.01	98.7505	1.3134	1.173
5.270	72.36	98.7445	1.3133	1.290
5.303	72.70	98.7420	1.3133	1.400
5.337	73.04	98.7392	1.3132	1.511
5.370	73.38	98.7357	1.3132	1.620
5.403	73.72	98.7315	1.3131	1.723
5.437	74.07	98.7268	1.3131	1.827
5.470	74.41	98.7217	1.3130	1.935
5.503	74.75	98.7166	1.3129	2.041
5.537	75.09	98.7112	1.3129	2.142
5.570	75.44	98.7060	1.3128	2.236
5.603	75.78	98.7008	1.3127	2.331
5.637	76.12	98.6956	1.3127	2.430
5.670	76.46	98.6903	1.3126	2.525
5.703	76.81	98.6850	1.3125	2.619
5.737	77.15	98.6794	1.3124	2.712
5.770	77.50	98.6736	1.3124	2.804
5.803	77.84	98.6680	1.3123	2.888
5.837	78.18	98.6631	1.3122	2.974
5.870	78.52	98.6582	1.3122	3.062
5.903	78.87	98.6533	1.3121	3.148
5.937	79.21	98.6482	1.3120	3.232
5.970	79.56	98.6430	1.3120	3.315
6.003	79.90	98.6380	1.3119	3.398
6.037	80.25	98.6330	1.3118	3.480
6.070	80.59	98.6279	1.3118	3.558
6.103	80.93	98.6228	1.3117	3.635
6.137	81.28	98.6179	1.3116	3.712
6.170	81.62	98.6133	1.3116	3.786
6.203	81.97	98.6089	1.3115	3.859
6.237	82.31	98.6048	1.3114	3.931
6.270	82.66	98.6011	1.3114	4.001
6.303	83.00	98.5976	1.3113	4.069
6.337	83.34	98.5942	1.3113	4.133
6.370	83.69	98.5907	1.3113	4.198
6.403	84.03	98.5874	1.3112	4.266
6.437	84.38	98.5843	1.3112	4.331
6.470	84.72	98.5811	1.3111	4.391
6.503	85.06	98.5780	1.3111	4.453
6.537	85.41	98.5752	1.3110	4.517
6.570	85.75	98.5726	1.3110	4.578
6.603	86.10	98.5704	1.3110	4.635
6.637	86.44	98.5680	1.3110	4.693
6.670	86.79	98.5655	1.3109	4.749
6.703	87.13	98.5628	1.3109	4.805
6.737	87.47	98.5600	1.3108	4.862
6.770	87.82	98.5571	1.3108	4.916
6.803	88.16	98.5542	1.3108	4.963
6.837	88.51	98.5513	1.3107	5.014
6.870	88.85	98.5483	1.3107	5.070
6.903	89.20	98.5454	1.3107	5.126
6.937	89.54	98.5427	1.3106	5.174
6.970	89.88	98.5400	1.3106	5.214
7.003	90.23	98.5373	1.3105	5.259
7.037	90.57	98.5347	1.3105	5.306
7.070	90.92	98.5320	1.3105	5.356
7.103	91.26	98.5297	1.3104	5.400
7.137	91.60	98.5274	1.3104	5.444
7.170	91.95	98.5250	1.3104	5.485
7.203	92.29	98.5225	1.3103	5.524
7.237	92.64	98.5196	1.3103	5.562
7.270	92.98	98.5168	1.3103	5.604
7.303	93.32	98.5142	1.3102	5.644
7.337	93.67	98.5117	1.3102	5.681
7.370	94.01	98.5087	1.3102	5.717
7.403	94.35	98.5054	1.3101	5.753
7.437	94.70	98.5018	1.3101	5.784
7.470	95.04	98.4980	1.3100	5.817
7.503	95.38	98.4939	1.3100	5.850
7.537	95.73	98.4897	1.3099	5.882
7.570	96.07	98.4857	1.3099	5.912
7.603	96.41	98.4820	1.3098	5.944
7.637	96.76	98.4787	1.3098	5.975
7.670	97.10	98.4756	1.3097	6.001
7.703	97.44	98.4724	1.3097	6.027
7.737	97.79	98.4687	1.3096	6.053
7.770	98.13	98.4652	1.3096	6.079
7.803	98.47	98.4620	1.3095	6.103
7.837	98.82	98.4588	1.3095	6.129
7.870	99.16	98.4554	1.3095	6.154
7.903	99.50	98.4523	1.3094	6.179
7.937	99.85	98.4495	1.3094	6.202
7.970	100.19	98.4464	1.3093	6.224
8.003	100.53	98.4431	1.3093	6.245
8.037	100.87	98.4401	1.3093	6.265
8.070	101.22	98.4374	1.3092	6.284
8.103	101.56	98.4349	1.3092	6.300
8.137	101.90	98.4321	1.3091	6.316
8.170	102.24	98.4294	1.3091	6.332
8.203	102.59	98.4270	1.3091	6.347
8.237	102.93	98.4244	1.3090	6.363
8.270	103.27	98.4215	1.3090	6.377
8.303	103.61	98.4186	1.3090	6.393
8.337	103.96	98.4157	1.3089	6.409
8.370	104.30	98.4129	1.3089	6.423
8.403	104.64	98.4098	1.3089	6.433
8.437	104.98	98.4069	1.3088	6.442
8.470	105.33	98.4039	1.3088	6.455
8.503	105.67	98.4012	1.3087	6.464
8.537	106.01	98.3986	1.3087	6.471
8.570	106.35	98.3958	1.3087	6.479

[step]
Isothermal 30.0 min
Time	Temperature	Weight	Weight	Heat Flow
min	°C	%	mg	mW
8.578	106.44	98.3951	1.3087	6.482
8.687	107.55	98.3863	1.3085	6.521
8.795	108.62	98.3772	1.3084	6.618
8.903	109.63	98.3689	1.3083	6.828
9.012	110.54	98.3600	1.3082	7.119
9.120	111.34	98.3522	1.3081	7.506
9.228	112.02	98.3422	1.3080	7.962
9.337	112.58	98.3360	1.3079	8.478
9.445	113.00	98.3283	1.3078	9.041
9.553	113.30	98.3186	1.3076	9.625
9.662	113.48	98.3095	1.3075	10.196
9.770	113.57	98.3006	1.3074	10.724
9.878	113.57	98.2922	1.3073	11.209
9.987	113.50	98.2835	1.3072	11.641
10.095	113.38	98.2739	1.3070	12.000
10.203	113.24	98.2652	1.3069	12.264
10.312	113.08	98.2605	1.3069	12.457
10.420	112.92	98.2568	1.3068	12.584
10.528	112.76	98.2534	1.3068	12.672
10.637	112.61	98.2504	1.3067	12.721
10.745	112.47	98.2471	1.3067	12.743
10.853	112.35	98.2444	1.3067	12.746
10.962	112.26	98.2430	1.3066	12.728
11.070	112.18	98.2416	1.3066	12.692
11.178	112.12	98.2406	1.3066	12.622
11.287	112.09	98.2379	1.3066	12.547
11.395	112.08	98.2360	1.3065	12.471
11.503	112.08	98.2336	1.3065	12.397
11.612	112.11	98.2332	1.3065	12.316
11.720	112.15	98.2323	1.3065	12.253
11.828	112.20	98.2301	1.3065	12.193
11.937	112.26	98.2294	1.3065	12.147
12.045	112.33	98.2289	1.3064	12.100
12.153	112.41	98.2284	1.3064	12.068
12.262	112.49	98.2255	1.3064	12.043
12.370	112.56	98.2248	1.3064	12.017
12.478	112.64	98.2252	1.3064	12.004
12.587	112.72	98.2246	1.3064	11.996
12.695	112.79	98.2229	1.3064	11.997
12.803	112.86	98.2212	1.3063	12.000
12.912	112.92	98.2190	1.3063	12.008
13.020	112.98	98.2171	1.3063	12.023
13.128	113.02	98.2150	1.3063	12.040
13.237	113.07	98.2139	1.3062	12.059
13.345	113.11	98.2135	1.3062	12.084
13.453	113.14	98.2119	1.3062	12.108
13.562	113.16	98.2105	1.3062	12.128
13.670	113.18	98.2093	1.3062	12.149
13.778	113.20	98.2087	1.3062	12.169
13.887	113.21	98.2052	1.3061	12.181
13.995	113.22	98.2056	1.3061	12.197
14.103	113.22	98.2044	1.3061	12.212
14.212	113.23	98.2030	1.3061	12.224
14.320	113.23	98.2015	1.3061	12.232
14.428	113.23	98.1997	1.3061	12.242
14.537	113.23	98.1974	1.3060	12.245
14.645	113.23	98.1955	1.3060	12.246
14.753	113.23	98.1947	1.3060	12.245
14.862	113.24	98.1933	1.3060	12.240
14.970	113.24	98.2199	1.3063	12.233
15.078	113.24	98.2171	1.3063	12.230
15.187	113.24	98.2153	1.3063	12.225
15.295	113.25	98.2143	1.3062	12.216
15.403	113.25	98.2140	1.3062	12.209
15.512	113.26	98.2140	1.3062	12.199
15.620	113.26	98.2129	1.3062	12.190
15.728	113.27	98.2122	1.3062	12.181
15.837	113.28	98.2124	1.3062	12.172
15.945	113.28	98.2128	1.3062	12.165
16.053	113.29	98.2107	1.3062	12.158
16.162	113.30	98.2094	1.3062	12.152
16.270	113.31	98.2070	1.3062	12.145
16.378	113.31	98.2048	1.3061	12.135
16.487	113.32	98.2023	1.3061	12.124
16.595	113.33	98.2024	1.3061	12.119
16.703	113.33	98.2024	1.3061	12.113
16.812	113.34	98.2008	1.3061	12.107
16.920	113.34	98.2003	1.3061	12.101
17.028	113.35	98.2004	1.3061	12.096
17.137	113.36	98.1997	1.3061	12.093
17.245	113.36	98.1981	1.3060	12.090
17.353	113.36	98.1971	1.3060	12.088
17.462	113.37	98.1957	1.3060	12.085
17.570	113.37	98.1954	1.3060	12.077
17.678	113.37	98.1955	1.3060	12.072
17.787	113.37	98.1941	1.3060	12.067
17.895	113.37	98.1938	1.3060	12.061
18.003	113.38	98.1928	1.3060	12.058
18.112	113.38	98.1925	1.3060	12.054
18.220	113.38	98.1925	1.3060	12.048
18.328	113.38	98.1910	1.3059	12.045
18.437	113.38	98.1901	1.3059	12.040
18.545	113.38	98.1900	1.3059	12.037
18.653	113.38	98.1887	1.3059	12.030
18.762	113.38	98.1891	1.3059	12.024
18.870	113.38	98.1883	1.3059	12.016
18.978	113.38	98.1874	1.3059	12.010
19.087	113.38	98.1869	1.3059	12.004
19.195	113.38	98.1862	1.3059	11.998
19.303	113.38	98.1850	1.3059	11.990
19.412	113.38	98.1836	1.3058	11.982
19.520	113.38	98.1835	1.3058	11.978
19.628	113.38	98.1834	1.3058	11.969
19.737	113.38	98.1833	1.3058	11.961
19.845	113.38	98.1827	1.3058	11.956
19.953	113.38	98.1812	1.3058	11.951
20.062	113.38	98.1799	1.3058	11.943
20.170	113.38	98.1786	1.3058	11.937
20.278	113.38	98.1783	1.3058	11.933
20.387	113.38	98.1784	1.3058	11.927
20.495	113.38	98.1781	1.3058	11.920
20.603	113.38	98.1777	1.3058	11.914
20.712	113.38	98.1778	1.3058	11.909
20.820	113.38	98.1779	1.3058	11.904
20.928	113.39	98.1771	1.3058	11.901
21.037	113.38	98.1860	1.3059	11.891
21.145	113.38	98.2053	1.3061	11.879
21.253	113.38	98.2275	1.3064	11.866
21.362	113.38	98.2395	1.3066	11.859
21.470	113.38	98.2461	1.3067	11.854
21.578	113.38	98.2513	1.3067	11.848
21.687	113.38	98.2530	1.3068	11.836
21.795	113.38	98.2525	1.3068	11.832
21.903	113.38	98.2530	1.3068	11.828
22.012	113.38	98.2530	1.3068	11.819
22.120	113.38	98.2533	1.3068	11.811
22.228	113.38	98.2526	1.3068	11.807
22.337	113.38	98.2518	1.3067	11.800
22.445	113.38	98.2518	1.3067	11.793
22.553	113.38	98.2521	1.3068	11.788
22.662	113.38	98.2519	1.3068	11.781
22.770	113.37	98.2521	1.3068	11.773
22.878	113.37	98.2508	1.3067	11.768
22.987	113.37	98.2490	1.3067	11.764
23.095	113.37	98.2478	1.3067	11.759
23.203	113.37	98.2468	1.3067	11.752
23.312	113.37	98.2477	1.3067	11.743
23.420	113.37	98.2478	1.3067	11.736
23.528	113.37	98.2469	1.3067	11.730
23.637	113.37	98.2469	1.3067	11.721
23.745	113.37	98.2465	1.3067	11.713
23.853	113.37	98.2446	1.3067	11.704
23.962	113.37	98.2427	1.3066	11.697
24.070	113.37	98.2431	1.3066	11.691
24.178	113.37	98.2427	1.3066	11.687
24.287	113.37	98.2430	1.3066	11.682
24.395	113.37	98.2424	1.3066	11.680
24.503	113.37	98.2415	1.3066	11.675
24.612	113.37	98.2405	1.3066	11.668
24.720	113.36	98.2408	1.3066	11.662
24.828	113.36	98.2397	1.3066	11.656
24.937	113.36	98.2390	1.3066	11.650
25.045	113.36	98.2393	1.3066	11.645
25.153	113.36	98.2395	1.3066	11.643
25.262	113.36	98.2396	1.3066	11.638
25.370	113.36	98.2393	1.3066	11.631
25.478	113.36	98.2379	1.3066	11.623
25.587	113.36	98.2377	1.3066	11.619
25.695	113.36	98.2366	1.3065	11.614
25.803	113.36	98.2362	1.3065	11.609
25.912	113.36	98.2364	1.3065	11.604
26.020	113.36	98.2368	1.3065	11.598
26.128	113.36	98.2360	1.3065	11.591
26.237	113.36	98.2353	1.3065	11.589
26.345	113.36	98.2359	1.3065	11.585
26.453	113.35	98.2358	1.3065	11.577
26.562	113.35	98.2346	1.3065	11.571
26.670	113.35	98.2326	1.3065	11.562
26.778	113.35	98.2325	1.3065	11.557
26.887	113.35	98.2329	1.3065	11.552
26.995	113.35	98.2333	1.3065	11.548
27.103	113.35	98.2322	1.3065	11.541
27.212	113.35	98.2321	1.3065	11.533
27.320	113.35	98.2316	1.3065	11.527
27.428	113.35	98.2309	1.3065	11.520
27.537	113.35	98.2299	1.3065	11.512
27.645	113.35	98.2290	1.3064	11.510
27.753	113.35	98.2292	1.3064	11.505
27.862	113.35	98.2290	1.3064	11.503
27.970	113.35	98.2278	1.3064	11.498
28.078	113.34	98.2262	1.3064	11.493
28.187	113.34	98.2262	1.3064	11.488
28.295	113.34	98.2264	1.3064	11.480
28.403	113.34	98.2260	1.3064	11.475
28.512	113.34	98.2260	1.3064	11.470
28.620	113.34	98.2263	1.3064	11.466
28.728	113.34	98.2252	1.3064	11.459
28.837	113.34	98.2233	1.3064	11.456
28.945	113.34	98.2233	1.3064	11.451
29.053	113.34	98.2219	1.3064	11.445
29.162	113.34	98.2220	1.3064	11.440
29.270	113.34	98.2230	1.3064	11.435
29.378	113.34	98.2231	1.3064	11.431
29.487	113.34	98.2210	1.3063	11.426
29.595	113.34	98.2212	1.3063	11.422
29.703	113.34	98.2210	1.3063	11.418
29.812	113.33	98.2208	1.3063	11.414
29.920	113.34	98.2210	1.3063	11.411
30.028	113.33	98.2207	1.3063	11.406
30.137	113.33	98.2214	1.3063	11.401
30.245	113.33	98.2219	1.3064	11.396
30.353	113.33	98.2224	1.3064	11.390
30.462	113.33	98.2217	1.3063	11.385
30.570	113.33	98.2206	1.3063	11.380
30.678	113.33	98.2206	1.3063	11.376
30.787	113.33	98.2213	1.3063	11.368
30.895	113.33	98.2219	1.3064	11.364
31.003	113.33	98.2428	1.3066	11.357
31.112	113.33	98.2308	1.3065	11.351
31.220	113.33	98.2277	1.3064	11.345
31.328	113.33	98.2241	1.3064	11.342
31.437	113.33	98.2225	1.3064	11.340
31.545	113.33	98.2226	1.3064	11.334
31.653	113.33	98.2214	1.3063	11.330
31.762	113.33	98.2197	1.3063	11.326
31.870	113.33	98.2189	1.3063	11.321
31.978	113.32	98.2203	1.3063	11.318
32.087	113.32	98.2210	1.3063	11.312
32.195	113.32	98.2212	1.3063	11.306
32.303	113.32	98.2209	1.3063	11.301
32.412	113.32	98.2212	1.3063	11.296
32.520	113.32	98.2216	1.3063	11.292
32.628	113.32	98.2214	1.3063	11.287
32.737	113.32	98.2210	1.3063	11.282
[...]
45.712	770.75	3.0307	0.0403	-334.223
45.745	774.09	3.0185	0.0401	-335.926
45.778	777.43	3.0084	0.0400	-337.557
45.812	780.78	2.9996	0.0399	-339.113
45.845	784.12	2.9911	0.0398	-340.586
45.878	787.47	2.9829	0.0397	-341.978
45.912	790.81	2.9754	0.0396	-343.276
45.945	794.16	2.9682	0.0395	-344.495
45.978	797.51	2.9603	0.0394	-345.655
46.012	800.86	2.9516	0.0393	-346.783
46.045	804.21	2.9425	0.0391	-347.864
46.078	807.56	2.9335	0.0390	-348.874
46.112	810.91	2.9241	0.0389	-349.793
46.145	814.27	2.9143	0.0388	-350.630
46.178	817.62	2.9042	0.0386	-351.412
46.212	820.98	2.8940	0.0385	-352.149
46.245	824.33	2.8833	0.0383	-352.836
46.278	827.68	2.8725	0.0382	-353.451
46.312	831.04	2.8616	0.0381	-354.001
46.345	834.39	2.8501	0.0379	-354.490
46.378	837.75	2.8381	0.0377	-354.890
46.412	841.11	2.8258	0.0376	-355.187
46.445	844.46	2.8133	0.0374	-355.401
46.478	847.82	2.8003	0.0372	-355.548
46.512	851.17	2.7869	0.0371	-355.650
46.545	854.53	2.7733	0.0369	-355.684
46.578	857.88	2.7595	0.0367	-355.632
46.612	861.24	2.7459	0.0365	-355.499
46.645	864.59	2.7322	0.0363	-355.295
46.678	867.95	2.7182	0.0362	-355.020
46.712	871.31	2.7037	0.0360	-354.680
46.745	874.66	2.6889	0.0358	-354.280
46.778	878.02	2.6738	0.0356	-353.821
46.812	881.39	2.6587	0.0354	-353.305
46.845	884.75	2.6436	0.0352	-352.742
46.878	888.12	2.6287	0.0350	-352.140
46.912	891.48	2.6140	0.0348	-351.481
46.945	894.85	2.5992	0.0346	-350.749
46.970	897.37	2.5878	0.0344	-350.025

[step]
Isothermal 5.0 min
Time	Temperature	Weight	Weight	Heat Flow
min	°C	%	mg	mW
46.978	898.21	2.5840	0.0344	-349.643
47.003	900.67	2.5725	0.0342	-347.858
47.028	903.07	2.5611	0.0341	-344.909
47.053	905.39	2.5499	0.0339	-340.685
47.078	907.61	2.5387	0.0338	-335.556
47.103	909.72	2.5276	0.0336	-329.708
47.128	911.73	2.5165	0.0335	-323.256
47.153	913.62	2.5056	0.0333	-316.304
47.178	915.40	2.4950	0.0332	-308.936
47.203	917.05	2.4847	0.0330	-301.237
47.228	918.58	2.4748	0.0329	-293.282
47.253	920.00	2.4651	0.0328	-285.127
47.278	921.30	2.4557	0.0327	-276.837
47.303	922.49	2.4469	0.0325	-268.469
47.328	923.58	2.4387	0.0324	-260.076
47.353	924.57	2.4310	0.0323	-251.705
47.378	925.46	2.4236	0.0322	-243.394
47.403	926.27	2.4171	0.0321	-235.176
47.428	926.99	2.4116	0.0321	-227.084
47.453	927.65	2.4069	0.0320	-219.144
47.478	928.23	2.4026	0.0320	-211.365
47.503	928.76	2.3981	0.0319	-203.770
47.528	929.23	2.3939	0.0318	-196.366
47.553	929.64	2.3899	0.0318	-189.165
47.578	930.02	2.3862	0.0317	-182.174
47.603	930.35	2.3822	0.0317	-175.393
47.628	930.65	2.3780	0.0316	-168.838
47.653	930.92	2.3736	0.0316	-162.500
47.678	931.16	2.3698	0.0315	-156.388
47.703	931.38	2.3668	0.0315	-150.497
47.728	931.58	2.3647	0.0315	-144.822
47.753	931.77	2.3631	0.0314	-139.364
47.778	931.94	2.3620	0.0314	-134.115
47.803	932.10	2.3613	0.0314	-129.064
47.828	932.25	2.3610	0.0314	-124.209
47.853	932.39	2.3612	0.0314	-119.539
47.878	932.53	2.3618	0.0314	-115.049
47.903	932.67	2.3626	0.0314	-110.730
47.928	932.80	2.3637	0.0314	-106.574
47.953	932.94	2.3652	0.0315	-102.570
47.978	933.07	2.3669	0.0315	-98.720
48.003	933.20	2.3690	0.0315	-95.005
48.028	933.34	2.3711	0.0315	-91.420
48.053	933.47	2.3733	0.0316	-87.954
48.078	933.61	2.3755	0.0316	-84.608
48.103	933.75	2.3777	0.0316	-81.364
48.128	933.89	2.3801	0.0317	-78.213
48.153	934.03	2.3827	0.0317	-75.150
48.178	934.18	2.3853	0.0317	-72.186
48.203	934.33	2.3881	0.0318	-69.305
48.228	934.48	2.3909	0.0318	-66.500
48.253	934.63	2.3938	0.0318	-63.762
48.278	934.79	2.3968	0.0319	-61.092
48.303	934.94	2.3999	0.0319	-58.480
48.328	935.10	2.4030	0.0320	-55.924
48.353	935.26	2.4058	0.0320	-53.422
48.378	935.42	2.4085	0.0320	-50.968
48.403	935.58	2.4112	0.0321	-48.562
48.428	935.75	2.4139	0.0321	-46.199
48.453	935.91	2.4166	0.0321	-43.883
48.478	936.07	2.4194	0.0322	-41.603
48.503	936.23	2.4221	0.0322	-39.364
48.528	936.39	2.4249	0.0323	-37.157
48.553	936.55	2.4279	0.0323	-34.985
48.578	936.71	2.4308	0.0323	-32.843
48.603	936.87	2.4337	0.0324	-30.727
48.628	937.03	2.4365	0.0324	-28.642
48.653	937.19	2.4393	0.0324	-26.586
48.678	937.35	2.4421	0.0325	-24.565
48.703	937.50	2.4450	0.0325	-22.572
48.728	937.65	2.4477	0.0326	-20.612
48.753	937.80	2.4502	0.0326	-18.674
48.778	937.95	2.4528	0.0326	-16.761
48.803	938.10	2.4553	0.0327	-14.876
48.828	938.25	2.4578	0.0327	-13.015
48.853	938.39	2.4601	0.0327	-11.184
48.878	938.53	2.4624	0.0327	-9.378
48.903	938.67	2.4645	0.0328	-7.597
48.928	938.81	2.4669	0.0328	-5.846
48.953	938.95	2.4691	0.0328	-4.119
48.978	939.08	2.4714	0.0329	-2.419
49.003	939.21	2.4736	0.0329	-0.741
49.028	939.34	2.4759	0.0329	0.914
49.053	939.47	2.4783	0.0330	2.544
49.078	939.60	2.4805	0.0330	4.148
49.103	939.72	2.4827	0.0330	5.728
49.128	939.84	2.4845	0.0330	7.283
49.153	939.97	2.4862	0.0331	8.820
49.178	940.08	2.4880	0.0331	10.332
49.203	940.20	2.4897	0.0331	11.819
49.228	940.32	2.4915	0.0331	13.279
49.253	940.43	2.4932	0.0332	14.717
49.278	940.54	2.4947	0.0332	16.131
49.303	940.65	2.4962	0.0332	17.530
49.328	940.76	2.4976	0.0332	18.902
49.353	940.87	2.4992	0.0332	20.247
49.378	940.97	2.5009	0.0333	21.565
49.403	941.08	2.5026	0.0333	22.860
49.428	941.18	2.5041	0.0333	24.135
49.453	941.28	2.5056	0.0333	25.390
49.478	941.38	2.5069	0.0333	26.621
49.503	941.48	2.5078	0.0334	27.837
49.528	941.57	2.5087	0.0334	29.030
49.553	941.67	2.5096	0.0334	30.210
49.578	941.76	2.5105	0.0334	31.368
49.603	941.86	2.5114	0.0334	32.503
49.628	941.95	2.5124	0.0334	33.613
49.653	942.04	2.5135	0.0334	34.701
49.678	942.13	2.5146	0.0334	35.770
49.703	942.22	2.5155	0.0335	36.824
49.728	942.30	2.5162	0.0335	37.861
49.753	942.39	2.5169	0.0335	38.882
49.778	942.47	2.5176	0.0335	39.882
49.803	942.56	2.5184	0.0335	40.867
49.828	942.64	2.5192	0.0335	41.838
49.853	942.72	2.5201	0.0335	42.795
49.878	942.80	2.5209	0.0335	43.738
49.903	942.88	2.5215	0.0335	44.664
49.928	942.96	2.5220	0.0335	45.572
49.953	943.04	2.5225	0.0335	46.467
49.978	943.11	2.5230	0.0336	47.340
50.003	943.19	2.5238	0.0336	48.195
50.028	943.26	2.5246	0.0336	49.033
50.053	943.33	2.5253	0.0336	49.853
50.078	943.41	2.5257	0.0336	50.656
50.103	943.48	2.5262	0.0336	51.454
50.128	943.55	2.5268	0.0336	52.237
50.153	943.62	2.5274	0.0336	53.015
50.178	943.69	2.5279	0.0336	53.776
50.203	943.76	2.5281	0.0336	54.529
50.228	943.82	2.5284	0.0336	55.266
50.253	943.89	2.5287	0.0336	55.990
50.278	943.96	2.5289	0.0336	56.695
50.303	944.02	2.5291	0.0336	57.389
50.328	944.09	2.5292	0.0336	58.076
50.353	944.15	2.5294	0.0336	58.750
50.378	944.21	2.5294	0.0336	59.408
50.403	944.27	2.5295	0.0336	60.054
50.428	944.33	2.5294	0.0336	60.691
50.453	944.39	2.5294	0.0336	61.322
50.478	944.45	2.5294	0.0336	61.945
50.503	944.51	2.5294	0.0336	62.551
50.528	944.57	2.5297	0.0336	63.145
50.553	944.63	2.5300	0.0336	63.726
50.578	944.69	2.5303	0.0337	64.299
50.603	944.74	2.5304	0.0337	64.866
50.628	944.80	2.5306	0.0337	65.419
50.653	944.85	2.5307	0.0337	65.961
50.678	944.91	2.5310	0.0337	66.498
50.703	944.96	2.5313	0.0337	67.026
50.728	945.01	2.5316	0.0337	67.548
50.753	945.06	2.5318	0.0337	68.054
50.778	945.12	2.5319	0.0337	68.554
50.803	945.17	2.5320	0.0337	69.042
50.828	945.22	2.5321	0.0337	69.521
50.853	945.27	2.5325	0.0337	69.994
50.878	945.32	2.5327	0.0337	70.458
50.903	945.36	2.5328	0.0337	70.924
50.928	945.41	2.5329	0.0337	71.375
50.953	945.46	2.5331	0.0337	71.820
50.978	945.51	2.5331	0.0337	72.252
51.003	945.55	2.5329	0.0337	72.680
51.028	945.60	2.5326	0.0337	73.101
51.053	945.65	2.5324	0.0337	73.517
51.078	945.69	2.5324	0.0337	73.923
51.103	945.73	2.5326	0.0337	74.322
51.128	945.78	2.5328	0.0337	74.712
51.153	945.82	2.5329	0.0337	75.094
51.178	945.86	2.5330	0.0337	75.469
51.203	945.91	2.5329	0.0337	75.838
51.228	945.95	2.5328	0.0337	76.204
51.253	945.99	2.5326	0.0337	76.566
51.278	946.03	2.5322	0.0337	76.924
51.303	946.07	2.5319	0.0337	77.271
51.328	946.11	2.5317	0.0337	77.610
51.353	946.15	2.5318	0.0337	77.936
51.378	946.19	2.5320	0.0337	78.257
51.403	946.23	2.5322	0.0337	78.575
51.428	946.27	2.5323	0.0337	78.891
51.453	946.30	2.5321	0.0337	79.195
51.478	946.34	2.5318	0.0337	79.499
51.503	946.38	2.5315	0.0337	79.800
51.528	946.41	2.5315	0.0337	80.097
51.553	946.45	2.5316	0.0337	80.392
51.578	946.49	2.5317	0.0337	80.679
51.603	946.52	2.5317	0.0337	80.960
51.628	946.56	2.5316	0.0337	81.238
51.653	946.59	2.5316	0.0337	81.503
51.678	946.62	2.5315	0.0337	81.767
51.703	946.66	2.5313	0.0337	82.028
51.728	946.69	2.5310	0.0337	82.290
51.753	946.73	2.5308	0.0337	82.549
51.778	946.76	2.5306	0.0337	82.794
51.803	946.79	2.5304	0.0337	83.030
51.828	946.82	2.5301	0.0337	83.266
51.853	946.85	2.5299	0.0336	83.499
51.878	946.88	2.5296	0.0336	83.731
51.903	946.92	2.5292	0.0336	83.959
51.928	946.95	2.5288	0.0336	84.181
51.953		2.5284	0.0336
51.970		2.5281	0.0336