Folder: tga_data_analysis/example/project

Note: README.md
# PyTGA - Thermogravimetric Analysis in Python

## Overview
PyTGA is a Python module designed for conducting and analyzing Thermogravimetric Analysis (TGA) experiments. It offers tools for loading, processing, and analyzing TGA data, focusing on proximate and oxidation analysis, solid distillation analysis, and deconvolution analysis.

## Features
- **Data Loading**: Supports loading TGA data from files.
- **Proximate Analysis**: Calculates moisture, ash, and volatile matter.
- **Oxidation Analysis**: Computes Ti, Tp, Tb, etc.
- **Solid Distillation Analysis**: Analyzes solid distillation over time.
- **Deconvolution Analysis**: Deconvolutes TGA curves for peak analysis.
- **Plotting and Visualization**: Functions for TGA data visualization.

File: CLSOx5_2.txt
Time	Temperature	Weight	Weight	Heat Flow
min	°C	%	µg	mW
0.003		100.0007	25090.2
0.037		100.0037	25091
0.070	18.74	100.0059	25091.5	-16.208
0.103	18.74	100.0071	25091.8	-16.219
0.137	18.74	100.0074	25091.9	-16.234
0.170	18.75	100.0067	25091.7	-16.256
0.203	18.75	100.0047	25091.2	-16.280
0.237	18.77	100.0018	25090.5	-16.307
0.270	18.78	99.9976	25089.5	-16.335
0.303	18.81	99.9921	25088.1	-16.362
0.337	18.85	99.9850	25086.3	-16.384
0.370	18.90	99.9770	25084.3	-16.402
0.403	18.96	99.9686	25082.2	-16.416
0.437	19.04	99.9604	25080.1	-16.426
0.470	19.13	99.9523	25078.1	-16.434
0.503	19.24	99.9447	25076.2	-16.440
0.537	19.35	99.9374	25074.3	-16.445
0.570	19.49	99.9304	25072.6	-16.448
0.603	19.64	99.9238	25070.9	-16.448
0.637	19.80	99.9174	25069.3	-16.444
0.670	19.97	99.9113	25067.8	-16.430
0.703	20.16	99.9055	25066.4	-16.405
0.737	20.37	99.9000	25065	-16.375
0.770	20.58	99.8946	25063.6	-16.338
0.803	20.81	99.8895	25062.3	-16.296
0.837	21.05	99.8845	25061.1	-16.247
0.870	21.31	99.8797	25059.9	-16.197
0.903	21.57	99.8751	25058.7	-16.141
0.937	21.85	99.8706	25057.6	-16.078
0.970	22.14	99.8662	25056.5	-16.005
1.003	22.44	99.8619	25055.4	-15.928
1.037	22.74	99.8577	25054.4	-15.847
1.070	23.06	99.8535	25053.3	-15.757
1.103	23.39	99.8493	25052.2	-15.657
1.137	23.72	99.8450	25051.2	-15.543
1.170	24.06	99.8408	25050.1	-15.418
1.203	24.42	99.8365	25049	-15.282
1.237	24.77	99.8321	25047.9	-15.139
1.270	25.14	99.8277	25046.8	-14.986
1.303	25.51	99.8231	25045.7	-14.825
1.337	25.89	99.8184	25044.5	-14.655
1.370	26.27	99.8135	25043.3	-14.479
1.403	26.66	99.8085	25042	-14.298
1.437	27.05	99.8034	25040.7	-14.110
1.470	27.44	99.7980	25039.4	-13.918
1.503	27.84	99.7925	25038	-13.717
1.537	28.25	99.7868	25036.6	-13.514
1.570	28.65	99.7810	25035.1	-13.307
1.603	29.06	99.7749	25033.6	-13.095
1.637	29.47	99.7687	25032	-12.879
1.670	29.89	99.7623	25030.4	-12.663
1.703	30.30	99.7557	25028.8	-12.445
1.737	30.72	99.7490	25027.1	-12.225
1.770	31.13	99.7420	25025.3	-12.006
1.803	31.55	99.7349	25023.5	-11.784
1.837	31.96	99.7275	25021.7	-11.563
1.870	32.38	99.7200	25019.8	-11.343
1.903	32.79	99.7123	25017.9	-11.121
1.937	33.21	99.7044	25015.9	-10.898
1.970	33.62	99.6963	25013.9	-10.674
2.003	34.04	99.6880	25011.8	-10.450
2.037	34.45	99.6795	25009.6	-10.228
2.070	34.86	99.6707	25007.4	-10.009
2.103	35.27	99.6618	25005.2	-9.788
2.137	35.67	99.6527	25002.9	-9.570
2.170	36.08	99.6434	25000.6	-9.353
2.203	36.48	99.6338	24998.2	-9.136
2.237	36.88	99.6241	24995.7	-8.919
2.270	37.28	99.6141	24993.2	-8.705
2.303	37.68	99.6040	24990.7	-8.493
2.337	38.07	99.5936	24988.1	-8.284
2.370	38.47	99.5830	24985.4	-8.075
2.403	38.86	99.5722	24982.7	-7.867
2.437	39.25	99.5612	24980	-7.659
2.470	39.63	99.5499	24977.1	-7.457
2.503	40.01	99.5384	24974.3	-7.258
2.537	40.39	99.5268	24971.3	-7.059
2.570	40.77	99.5149	24968.3	-6.863
2.603	41.15	99.5028	24965.3	-6.670
2.637	41.52	99.4904	24962.2	-6.479
2.670	41.89	99.4778	24959	-6.288
2.703	42.26	99.4650	24955.8	-6.099
2.737	42.63	99.4520	24952.6	-5.914
2.770	43.00	99.4387	24949.2	-5.732
2.803	43.36	99.4252	24945.8	-5.550
2.837	43.72	99.4115	24942.4	-5.368
2.870	44.08	99.3975	24938.9	-5.190
2.903	44.44	99.3834	24935.3	-5.015
2.937	44.79	99.3689	24931.7	-4.843
2.970	45.15	99.3542	24928	-4.672
3.003	45.50	99.3390	24924.2	-4.504
3.037	45.85	99.3232	24920.2	-4.339
3.070	46.20	99.3070	24916.2	-4.172
3.103	46.55	99.2905	24912.1	-4.008
3.137	46.90	99.2737	24907.8	-3.848
3.170	47.24	99.2564	24903.5	-3.689
3.203	47.59	99.2388	24899.1	-3.530
3.237	47.93	99.2208	24894.6	-3.371
3.270	48.28	99.2022	24889.9	-3.216
3.303	48.62	99.1833	24885.2	-3.061
3.337	48.96	99.1644	24880.4	-2.908
3.370	49.30	99.1453	24875.6	-2.758
3.403	49.64	99.1260	24870.8	-2.610
3.437	49.98	99.1063	24865.8	-2.462
3.470	50.32	99.0863	24860.8	-2.316
3.503	50.66	99.0659	24855.7	-2.172
3.537	51.00	99.0456	24850.6	-2.027
3.570	51.34	99.0252	24845.5	-1.883
3.603	51.68	99.0044	24840.3	-1.739
3.637	52.01	98.9833	24835	-1.597
3.670	52.35	98.9622	24829.7	-1.454
3.703	52.69	98.9410	24824.4	-1.315
3.737	53.03	98.9199	24819.1	-1.176
3.770	53.36	98.8986	24813.7	-1.038
3.803	53.70	98.8769	24808.3	-0.901
3.837	54.04	98.8551	24802.8	-0.763
3.870	54.38	98.8332	24797.3	-0.625
3.903	54.71	98.8114	24791.8	-0.490
3.937	55.05	98.7893	24786.3	-0.355
3.970	55.39	98.7670	24780.7	-0.222
4.003	55.73	98.7448	24775.1	-0.089
4.037	56.07	98.7227	24769.6	0.043
4.070	56.40	98.7001	24763.9	0.175
4.103	56.74	98.6772	24758.2	0.307
4.137	57.08	98.6543	24752.4	0.440
4.170	57.42	98.6315	24746.7	0.573
4.203	57.76	98.6085	24740.9	0.707
4.237	58.10	98.5853	24735.1	0.838
4.270	58.44	98.5620	24729.3	0.968
4.303	58.78	98.5387	24723.4	1.097
4.337	59.12	98.5153	24717.6	1.229
4.370	59.47	98.4921	24711.7	1.362
4.403	59.81	98.4687	24705.9	1.494
4.437	60.15	98.4452	24700	1.625
4.470	60.49	98.4216	24694	1.756
4.503	60.83	98.3979	24688.1	1.885
4.537	61.17	98.3740	24682.1	2.015
4.570	61.52	98.3502	24676.1	2.147
4.603	61.86	98.3264	24670.1	2.279
4.637	62.21	98.3026	24664.2	2.412
4.670	62.55	98.2788	24658.2	2.543
4.703	62.90	98.2548	24652.2	2.674
4.737	63.24	98.2309	24646.2	2.802
4.770	63.59	98.2069	24640.2	2.932
4.803	63.93	98.1828	24634.1	3.064
4.837	64.28	98.1587	24628.1	3.196
4.870	64.62	98.1346	24622	3.330
4.903	64.97	98.1107	24616	3.462
4.937	65.31	98.0868	24610	3.595
4.970	65.66	98.0628	24604	3.727
5.003	66.01	98.0388	24598	3.862
5.037	66.35	98.0147	24592	3.996
5.070	66.70	97.9908	24586	4.131
5.103	67.05	97.9669	24579.9	4.265
5.137	67.40	97.9430	24574	4.400
5.170	67.75	97.9191	24568	4.535
5.203	68.09	97.8952	24562	4.671
5.237	68.44	97.8715	24556	4.808
5.270	68.79	97.8478	24550.1	4.944
5.303	69.14	97.8243	24544.2	5.081
5.337	69.49	97.8008	24538.3	5.220
5.370	69.84	97.7772	24532.4	5.361
5.403	70.19	97.7538	24526.5	5.502
5.437	70.54	97.7304	24520.6	5.643
5.470	70.89	97.7070	24514.7	5.785
5.503	71.24	97.6838	24508.9	5.925
5.537	71.59	97.6608	24503.2	6.066
5.570	71.94	97.6379	24497.4	6.207
5.603	72.29	97.6149	24491.6	6.349
5.637	72.64	97.5920	24485.9	6.492
5.670	72.99	97.5692	24480.2	6.636
5.703	73.34	97.5466	24474.5	6.782
5.737	73.70	97.5242	24468.9	6.926
5.770	74.05	97.5019	24463.3	7.072
5.803	74.40	97.4796	24457.7	7.219
5.837	74.75	97.4577	24452.2	7.367
5.870	75.11	97.4358	24446.7	7.513
5.903	75.46	97.4141	24441.2	7.660
5.937	75.81	97.3922	24435.8	7.808
5.970	76.16	97.3704	24430.3	7.957
6.003	76.51	97.3490	24424.9	8.105
6.037	76.87	97.3279	24419.6	8.256
6.070	77.22	97.3068	24414.3	8.408
6.103	77.57	97.2859	24409.1	8.561
6.137	77.92	97.2652	24403.9	8.711
6.170	78.28	97.2446	24398.7	8.863
6.203	78.63	97.2243	24393.6	9.015
6.237	78.98	97.2040	24388.5	9.168
6.270	79.34	97.1837	24383.4	9.322
6.303	79.69	97.1636	24378.4	9.477
6.337	80.04	97.1438	24373.4	9.632
6.370	80.40	97.1242	24368.5	9.788
6.403	80.75	97.1047	24363.6	9.943
6.437	81.10	97.0855	24358.8	10.099
6.470	81.46	97.0666	24354.1	10.257
6.503	81.81	97.0478	24349.3	10.416
6.537	82.17	97.0291	24344.7	10.573
6.570	82.52	97.0107	24340	10.732
6.603	82.87	96.9924	24335.5	10.892
6.637	83.23	96.9743	24330.9	11.052
6.670	83.58	96.9563	24326.4	11.212
6.703	83.93	96.9383	24321.9	11.372
6.737	84.29	96.9207	24317.5	11.531
6.770	84.64	96.9035	24313.1	11.692
6.803	85.00	96.8867	24308.9	11.854
6.837	85.35	96.8700	24304.7	12.016
6.870	85.71	96.8534	24300.6	12.178
6.903	86.06	96.8370	24296.5	12.342
6.937	86.42	96.8209	24292.4	12.506
6.970	86.77	96.8048	24288.4	12.669
7.003	87.12	96.7888	24284.4	12.832
7.037	87.48	96.7732	24280.4	12.996
7.070	87.83	96.7578	24276.6	13.160
7.103	88.19	96.7425	24272.7	13.325
7.137	88.54	96.7273	24268.9	13.489
7.170	88.90	96.7122	24265.1	13.654
7.203	89.25	96.6970	24261.3	13.818
7.237	89.61	96.6820	24257.6	13.982
7.270	89.96	96.6670	24253.8	14.146
7.303	90.32	96.6521	24250.1	14.312
7.337	90.67	96.6372	24246.3	14.480
7.370	91.03	96.6224	24242.6	14.648
7.403	91.38	96.6077	24238.9	14.816
7.437	91.74	96.5930	24235.2	14.983
7.470	92.09	96.5785	24231.6	15.148
7.503	92.45	96.5641	24228	15.314
7.537	92.80	96.5498	24224.4	15.482
7.570	93.16	96.5357	24220.9	15.647
7.603	93.51	96.5218	24217.4	15.812
7.637	93.87	96.5080	24213.9	15.977
7.670	94.23	96.4943	24210.5	16.145
7.703	94.58	96.4809	24207.1	16.314
7.737	94.93	96.4676	24203.8	16.481
7.770	95.29	96.4545	24200.5	16.648
7.803	95.64	96.4416	24197.2	16.814
7.837	96.00	96.4288	24194	16.980
7.870	96.35	96.4162	24190.9	17.146
7.903	96.71	96.4038	24187.8	17.313
7.937	97.07	96.3916	24184.7	17.479
7.970	97.42	96.3796	24181.7	17.644
8.003	97.78	96.3678	24178.7	17.810
8.037	98.13	96.3562	24175.8	17.978
8.070	98.49	96.3448	24173	18.146
8.103	98.84	96.3336	24170.1	18.314
8.137	99.20	96.3225	24167.4	18.480
8.170	99.55	96.3117	24164.7	18.645
8.203	99.91	96.3011	24162	18.807
8.237	100.26	96.2907	24159.4	18.972
8.270	100.62	96.2804	24156.8	19.138
8.303	100.98	96.2704	24154.3	19.302
8.337	101.33	96.2606	24151.8	19.468
8.370	101.69	96.2509	24149.4	19.633
8.403	102.04	96.2414	24147	19.795
8.437	102.40	96.2321	24144.7	19.959
8.470	102.75	96.2230	24142.4	20.123
8.503	103.11	96.2141	24140.2	20.286
8.537	103.46	96.2053	24138	20.450
8.570	103.82	96.1968	24135.8	20.613
8.603	104.17	96.1884	24133.7	20.774
8.637	104.52	96.1802	24131.7	20.934
8.670	104.88	96.1722	24129.7	21.097
8.703	105.24	96.1643	24127.7	21.260
8.737	105.59	96.1566	24125.8	21.421
8.770	105.95	96.1491	24123.9	21.583
8.803	106.30	96.1418	24122	21.744
8.837	106.66	96.1346	24120.2	21.903
8.870	107.01	96.1276	24118.5	22.062
8.903	107.37	96.1208	24116.8	22.220
8.937	107.72	96.1142	24115.1	22.378
8.970	108.08	96.1077	24113.5	22.534
9.003	108.43	96.1014	24111.9	22.690
9.037	108.79	96.0952	24110.3	22.847
9.062	109.05	96.0907	24109.2	22.964

[step]
Isothermal 30.0 min
Time	Temperature	Weight	Weight	Heat Flow
min	°C	%	µg	mW
9.070	109.14	96.0892	24108.8	23.003
9.187	110.38	96.0695	24103.9	23.537
9.303	111.55	96.0517	24099.4	24.056
9.420	112.63	96.0361	24095.5	24.539
9.537	113.57	96.0226	24092.1	24.980
9.653	114.35	96.0110	24089.2	25.368
9.770	114.96	96.0013	24086.8	25.693
9.887	115.39	95.9929	24084.7	25.960
10.003	115.65	95.9860	24083	26.171
10.120	115.77	95.9802	24081.5	26.325
10.237	115.76	95.9754	24080.3	26.433
10.353	115.66	95.9713	24079.2	26.500
10.470	115.51	95.9676	24078.3	26.525
10.587	115.33	95.9642	24077.5	26.536
10.703	115.15	95.9612	24076.7	26.541
10.820	114.96	95.9584	24076	26.534
10.937	114.78	95.9559	24075.4	26.520
11.053	114.62	95.9537	24074.8	26.502
11.170	114.49	95.9517	24074.3	26.481
11.287	114.38	95.9498	24073.9	26.465
11.403	114.31	95.9482	24073.4	26.455
11.520	114.27	95.9467	24073.1	26.451
11.637	114.26	95.9454	24072.8	26.450
11.753	114.28	95.9442	24072.4	26.459
11.870	114.32	95.9431	24072.2	26.477
11.987	114.38	95.9422	24071.9	26.512
12.103	114.45	95.9414	24071.7	26.548
12.220	114.54	95.9408	24071.6	26.594
12.337	114.64	95.9403	24071.5	26.640
12.453	114.74	95.9398	24071.4	26.685
12.570	114.84	95.9394	24071.2	26.731
12.687	114.93	95.9391	24071.2	26.780
12.803	115.03	95.9388	24071.1	26.815
12.920	115.11	95.9386	24071.1	26.856
13.037	115.19	95.9384	24071	26.889
13.153	115.26	95.9383	24071	26.918
13.270	115.32	95.9382	24070.9	26.946
13.387	115.37	95.9380	24070.9	26.966
13.503	115.41	95.9379	24070.9	26.983
13.620	115.44	95.9378	24070.8	26.999
13.737	115.47	95.9377	24070.8	27.013
13.853	115.48	95.9375	24070.8	27.022
13.970	115.50	95.9374	24070.8	27.028
14.087	115.51	95.9373	24070.7	27.031
14.203	115.52	95.9372	24070.7	27.035
14.320	115.52	95.9370	24070.6	27.036
14.437	115.52	95.9368	24070.6	27.036
14.553	115.52	95.9367	24070.6	27.035
14.670	115.53	95.9365	24070.5	27.032
14.787	115.53	95.9364	24070.5	27.026
14.903	115.53	95.9362	24070.5	27.018
15.020	115.54	95.9361	24070.4	27.012
15.137	115.54	95.9359	24070.4	27.009
15.253	115.55	95.9357	24070.3	27.002
15.370	115.56	95.9356	24070.3	26.999
15.487	115.57	95.9355	24070.3	26.995
15.603	115.58	95.9354	24070.2	26.991
15.720	115.59	95.9352	24070.2	26.989
15.837	115.60	95.9351	24070.2	26.985
15.953	115.61	95.9349	24070.1	26.982
16.070	115.62	95.9348	24070.1	26.977
16.187	115.63	95.9348	24070.1	26.974
16.303	115.64	95.9346	24070.1	26.971
16.420	115.65	95.9345	24070	26.964
16.537	115.66	95.9345	24070	26.960
16.653	115.67	95.9343	24070	26.955
16.770	115.67	95.9342	24070	26.951
16.887	115.68	95.9342	24069.9	26.945
17.003	115.69	95.9341	24069.9	26.940
17.120	115.69	95.9340	24069.9	26.935
17.237	115.70	95.9339	24069.9	26.931
17.353	115.70	95.9338	24069.8	26.928
17.470	115.70	95.9336	24069.8	26.922
17.587	115.71	95.9335	24069.8	26.915
17.703	115.71	95.9334	24069.8	26.909
17.820	115.71	95.9334	24069.7	26.903
17.937	115.71	95.9333	24069.7	26.897
18.053	115.71	95.9332	24069.7	26.889
18.170	115.71	95.9331	24069.7	26.882
18.287	115.71	95.9330	24069.7	26.875
18.403	115.71	95.9329	24069.6	26.868
18.520	115.71	95.9328	24069.6	26.863
18.637	115.72	95.9328	24069.6	26.858
18.753	115.72	95.9327	24069.6	26.850
18.870	115.72	95.9326	24069.5	26.844
18.987	115.72	95.9325	24069.5	26.837
19.103	115.72	95.9325	24069.5	26.830
19.220	115.72	95.9324	24069.5	26.820
19.337	115.72	95.9323	24069.5	26.811
19.453	115.72	95.9322	24069.4	26.802
19.570	115.72	95.9321	24069.4	26.796
19.687	115.72	95.9320	24069.4	26.788
19.803	115.72	95.9319	24069.4	26.780
19.920	115.72	95.9318	24069.3	26.771
20.037	115.72	95.9317	24069.3	26.763
20.153	115.72	95.9316	24069.3	26.756
20.270	115.72	95.9315	24069.3	26.749
20.387	115.72	95.9315	24069.3	26.740
20.503	115.72	95.9314	24069.2	26.732
20.620	115.72	95.9314	24069.2	26.727
20.737	115.72	95.9313	24069.2	26.719
20.853	115.72	95.9313	24069.2	26.710
20.970	115.72	95.9312	24069.2	26.702
21.087	115.72	95.9311	24069.2	26.692
21.203	115.72	95.9311	24069.2	26.683
21.320	115.72	95.9309	24069.1	26.676
21.437	115.72	95.9309	24069.1	26.671
21.553	115.71	95.9309	24069.1	26.663
21.670	115.71	95.9309	24069.1	26.654
21.787	115.71	95.9308	24069.1	26.647
21.903	115.71	95.9308	24069.1	26.640
22.020	115.71	95.9308	24069.1	26.631
22.137	115.71	95.9307	24069.1	26.621
22.253	115.71	95.9306	24069	26.615
22.370	115.71	95.9306	24069	26.608
22.487	115.70	95.9305	24069	26.597
22.603	115.71	95.9304	24069	26.589
22.720	115.70	95.9303	24069	26.580
22.837	115.70	95.9302	24068.9	26.571
22.953	115.70	95.9301	24068.9	26.565
23.070	115.70	95.9300	24068.9	26.559
23.187	115.70	95.9300	24068.9	26.550
23.303	115.70	95.9299	24068.9	26.541
23.420	115.70	95.9299	24068.9	26.534
23.537	115.70	95.9297	24068.8	26.529
23.653	115.69	95.9297	24068.8	26.521
23.770	115.69	95.9297	24068.8	26.516
23.887	115.69	95.9296	24068.8	26.509
24.003	115.69	95.9296	24068.8	26.500
24.120	115.69	95.9295	24068.8	26.492
24.237	115.69	95.9295	24068.8	26.485
24.353	115.69	95.9295	24068.8	26.480
24.470	115.69	95.9294	24068.7	26.475
24.587	115.69	95.9293	24068.7	26.468
24.703	115.68	95.9293	24068.7	26.460
24.820	115.68	95.9293	24068.7	26.454
24.937	115.68	95.9292	24068.7	26.448
25.053	115.68	95.9292	24068.7	26.441
25.170	115.68	95.9291	24068.7	26.431
25.287	115.68	95.9291	24068.7	26.422
25.403	115.68	95.9290	24068.6	26.417
25.520	115.68	95.9289	24068.6	26.410
25.637	115.68	95.9289	24068.6	26.402
25.753	115.68	95.9288	24068.6	26.396
25.870	115.67	95.9286	24068.5	26.388
25.987	115.67	95.9286	24068.5	26.379
26.103	115.67	95.9285	24068.5	26.372
26.220	115.67	95.9285	24068.5	26.365
26.337	115.67	95.9284	24068.5	26.360
26.453	115.67	95.9284	24068.5	26.352
26.570	115.67	95.9283	24068.5	26.344
26.687	115.67	95.9282	24068.4	26.335
26.803	115.66	95.9282	24068.4	26.327
26.920	115.66	95.9282	24068.4	26.318
27.037	115.66	95.9281	24068.4	26.310
27.153	115.66	95.9280	24068.4	26.307
27.270	115.66	95.9279	24068.4	26.303
27.387	115.66	95.9279	24068.4	26.296
27.503	115.66	95.9279	24068.4	26.288
27.620	115.65	95.9279	24068.4	26.280
27.737	115.65	95.9279	24068.4	26.271
27.853	115.65	95.9279	24068.4	26.264
27.970	115.65	95.9278	24068.3	26.257
28.087	115.65	95.9278	24068.4	26.251
28.203	115.65	95.9278	24068.3	26.244
28.320	115.65	95.9278	24068.3	26.238
28.437	115.65	95.9278	24068.3	26.232
28.553	115.65	95.9277	24068.3	26.226
28.670	115.65	95.9276	24068.3	26.217
28.787	115.64	95.9276	24068.3	26.210
28.903	115.64	95.9275	24068.3	26.204
29.020	115.65	95.9274	24068.3	26.199
29.137	115.64	95.9274	24068.2	26.193
29.253	115.64	95.9274	24068.3	26.186
29.370	115.64	95.9274	24068.2	26.179
29.487	115.64	95.9274	24068.2	26.172
29.603	115.64	95.9273	24068.2	26.165
29.720	115.63	95.9272	24068.2	26.159
29.837	115.64	95.9271	24068.2	26.154
29.953	115.63	95.9271	24068.2	26.147
30.070	115.63	95.9270	24068.1	26.142
30.187	115.63	95.9269	24068.1	26.133
30.303	115.63	95.9269	24068.1	26.128
30.420	115.63	95.9269	24068.1	26.121
30.537	115.63	95.9269	24068.1	26.115
30.653	115.63	95.9268	24068.1	26.108
30.770	115.63	95.9267	24068.1	26.103
30.887	115.63	95.9267	24068.1	26.096
31.003	115.62	95.9267	24068.1	26.092
31.120	115.62	95.9266	24068	26.086
31.237	115.62	95.9266	24068	26.080
31.353	115.62	95.9265	24068	26.073
31.470	115.62	95.9264	24068	26.065
31.587	115.62	95.9264	24068	26.059
31.703	115.62	95.9263	24068	26.055
31.820	115.62	95.9262	24067.9	26.045
31.937	115.62	95.9262	24068	26.040
32.053	115.62	95.9262	24067.9	26.034
32.170	115.61	95.9262	24067.9	26.028
32.287	115.62	95.9262	24067.9	26.023
32.403	115.61	95.9261	24067.9	26.017
32.520	115.61	95.9261	24067.9	26.011
32.637	115.61	95.9261	24067.9	26.005
32.753	115.61	95.9259	24067.9	25.999
32.870	115.61	95.9259	24067.9	25.996
32.987	115.61	95.9258	24067.9	25.993
33.103	115.61	95.9258	24067.8	25.990
33.220	115.61	95.9258	24067.8	25.985
33.337	115.61	95.9258	24067.8	25.977
[...]
211.070	951.46	-0.4486	-112.5516	128.972
211.195	951.49	-0.4488	-112.5974	129.026
211.320	951.51	-0.4489	-112.6169	129.082
211.445	951.54	-0.4490	-112.6580	129.151
211.570	951.57	-0.4491	-112.6871	129.206
211.695	951.59	-0.4492	-112.7100	129.246
211.820	951.61	-0.4493	-112.7313	129.283
211.945	951.63	-0.4494	-112.7542	129.332
212.070	951.65	-0.4496	-112.7944	129.371
212.195	951.66	-0.4497	-112.8284	129.412
212.320	951.68	-0.4498	-112.8567	129.462
212.445	951.70	-0.4499	-112.8737	129.502
212.570	951.72	-0.4500	-112.9133	129.537
212.695	951.73	-0.4501	-112.9313	129.573
212.820	951.75	-0.4502	-112.9637	129.600
212.945	951.76	-0.4504	-113.0061	129.624
213.070	951.77	-0.4505	-113.0326	129.649
213.195	951.79	-0.4506	-113.0566	129.669
213.320	951.80	-0.4507	-113.0710	129.689
213.445	951.81	-0.4508	-113.1159	129.711
213.570	951.82	-0.4509	-113.1407	129.740
213.695	951.83	-0.4511	-113.1791	129.758
213.820	951.84	-0.4512	-113.2146	129.779
213.945	951.85	-0.4513	-113.2233	129.798
214.070	951.86	-0.4514	-113.2443	129.811
214.195	951.87	-0.4515	-113.2830	129.826
214.320	951.87	-0.4516	-113.3149	129.845
214.445	951.88	-0.4518	-113.3465	129.871
214.570	951.89	-0.4519	-113.3701	129.903
214.695	951.90	-0.4519	-113.3778	129.925
214.820	951.90	-0.4520	-113.4161	129.946
214.945	951.91	-0.4522	-113.4618	129.962
215.070	951.92	-0.4524	-113.4965	129.968
215.195	951.92	-0.4525	-113.5273	129.973
215.320	951.93	-0.4525	-113.5438	129.978
215.445	951.94	-0.4526	-113.5672	129.982
215.570	951.94	-0.4527	-113.5932	129.987
215.695	951.95	-0.4529	-113.6300	129.999
215.820	951.95	-0.4530	-113.6587	130.005
215.945	951.95	-0.4531	-113.6852	130.016
216.070	951.96	-0.4532	-113.7066	130.025
216.195	951.96	-0.4533	-113.7293	130.037
216.320	951.96	-0.4534	-113.7624	130.047
216.445	951.97	-0.4535	-113.7900	130.054
216.570	951.97	-0.4536	-113.8079	130.059
216.695	951.97	-0.4537	-113.8254	130.070
216.820	951.98	-0.4538	-113.8547	130.079
216.945	951.98	-0.4540	-113.9119	130.095
217.070	951.98	-0.4541	-113.9459	130.102
217.195	951.99	-0.4543	-113.9723	130.104
217.320	951.99	-0.4544	-113.9990	130.111
217.445	951.99	-0.4543	-113.9958	130.106
217.570	951.99	-0.4544	-114.0049	130.113
217.695	952.00	-0.4544	-114.0179	130.117
217.820	952.00	-0.4545	-114.0286	130.128
217.945	952.00	-0.4546	-114.0534	130.139
218.070	952.00	-0.4547	-114.0959	130.145
218.195	952.01	-0.4548	-114.1200	130.147
218.320	952.01	-0.4550	-114.1491	130.159
218.445	952.01	-0.4551	-114.1777	130.164
218.570	952.01	-0.4552	-114.2157	130.173
218.695	952.01	-0.4553	-114.2466	130.175
218.820	952.01	-0.4554	-114.2696	130.175
218.945	952.02	-0.4555	-114.2918	130.167
219.070	952.02	-0.4557	-114.3298	130.164
219.195	952.02	-0.4558	-114.3713	130.164
219.320	952.02	-0.4559	-114.3876	130.177
219.445	952.02	-0.4560	-114.4132	130.179
219.570	952.02	-0.4561	-114.4288	130.177
219.695	952.02	-0.4561	-114.4435	130.179
219.820	952.02	-0.4563	-114.4853	130.179
219.945	952.02	-0.4563	-114.4965	130.171
220.070	952.02	-0.4565	-114.5315	130.175
220.195	952.02	-0.4566	-114.5597	130.184
220.320	952.03	-0.4567	-114.5811	130.188
220.445	952.03	-0.4568	-114.6116	130.189
220.570	952.03	-0.4569	-114.6377	130.183
220.695	952.03	-0.4570	-114.6610	130.179
220.820	952.03	-0.4572	-114.7003	130.172
220.945	952.03	-0.4572	-114.7215	130.176
221.070	952.03	-0.4574	-114.7647	130.179
221.195	952.03	-0.4575	-114.7830	130.186
221.320	952.03	-0.4576	-114.8016	130.196
221.445	952.03	-0.4577	-114.8260	130.207
221.570	952.03	-0.4578	-114.8615	130.218
221.695	952.03	-0.4580	-114.9004	130.218
221.820	952.03	-0.4581	-114.9423	130.218
221.945	952.03	-0.4581	-114.9494	130.213
222.070	952.03	-0.4582	-114.9727	130.205
222.195	952.03	-0.4584	-115.0058	130.205
222.320	952.03	-0.4584	-115.0211	130.200
222.445	952.03	-0.4585	-115.0487	130.189
222.570	952.03	-0.4586	-115.0540	130.182
222.695	952.03	-0.4586	-115.0720	130.179
222.820	952.03	-0.4587	-115.0943	130.176
222.945	952.03	-0.4589	-115.1273	130.178
223.070	952.03	-0.4590	-115.1534	130.172
223.195	952.03	-0.4591	-115.1975	130.176
223.320	952.03	-0.4593	-115.2365	130.183
223.445	952.03	-0.4594	-115.2566	130.192
223.570	952.04	-0.4594	-115.2751	130.190
223.695	952.03	-0.4595	-115.2988	130.182
223.820	952.04	-0.4597	-115.3375	130.176
223.945	952.04	-0.4598	-115.3738	130.181
224.070	952.03	-0.4599	-115.3856	130.186
224.195	952.03	-0.4599	-115.3972	130.189
224.320	952.03	-0.4600	-115.4148	130.194
224.445	952.04	-0.4601	-115.4474	130.199
224.570	952.04	-0.4602	-115.4701	130.204
224.695	952.04	-0.4603	-115.4888	130.204
224.820	952.04	-0.4604	-115.5168	130.200
224.945	952.04	-0.4606	-115.5558	130.197
225.070	952.04	-0.4607	-115.5846	130.199
225.195	952.04	-0.4607	-115.5968	130.197
225.320	952.04	-0.4608	-115.6112	130.189
225.445	952.04	-0.4609	-115.6288	130.185
225.570	952.04	-0.4610	-115.6534	130.186
225.695	952.04	-0.4611	-115.6831	130.175
225.820	952.04	-0.4612	-115.7114	130.168
225.945	952.03	-0.4613	-115.7472	130.168
226.070	952.03	-0.4614	-115.7572	130.163
226.195	952.03	-0.4615	-115.7942	130.164
226.320	952.04	-0.4616	-115.8192	130.164
226.445	952.03	-0.4617	-115.8376	130.163
226.570	952.03	-0.4618	-115.8621	130.159
226.695	952.04	-0.4619	-115.8915	130.158
226.820	952.04	-0.4620	-115.9138	130.162
226.945	952.04	-0.4621	-115.9456	130.168
227.070	952.04	-0.4622	-115.9572	130.163
227.195	952.04	-0.4622	-115.9747	130.158
227.320	952.04	-0.4623	-115.9803	130.160
227.445	952.03	-0.4623	-115.9889	130.161
227.570	952.03	-0.4624	-116.0187	130.166
227.695	952.04	-0.4626	-116.0618	130.173
227.820	952.04	-0.4627	-116.0969	130.174
227.945	952.04	-0.4628	-116.1187	130.169
228.070	952.04	-0.4629	-116.1429	130.167
228.195	952.04	-0.4630	-116.1627	130.161
228.320	952.04	-0.4630	-116.1790	130.159
228.445	952.04	-0.4631	-116.1912	130.155
228.570	952.04	-0.4631	-116.1982	130.146
228.695	952.04	-0.4632	-116.2233	130.139
228.820	952.04	-0.4634	-116.2685	130.135
228.945	952.04	-0.4635	-116.2992	130.134
229.070	952.04	-0.4636	-116.3238	130.132
229.195	952.04	-0.4638	-116.3629	130.125
229.320	952.04	-0.4639	-116.3804	130.116
229.445	952.04	-0.4640	-116.4080	130.114
229.570	952.03	-0.4640	-116.4225	130.114
229.695	952.03	-0.4641	-116.4555	130.115
229.820	952.03	-0.4642	-116.4700	130.115
229.945	952.03	-0.4642	-116.4756	130.108
230.070	952.03	-0.4642	-116.4763	130.112
230.195	952.03	-0.4643	-116.4975	130.121
230.320	952.03	-0.4644	-116.5257	130.124
230.445	952.04	-0.4645	-116.5355	130.123
230.570	952.04	-0.4645	-116.5501	130.115
230.695	952.04	-0.4646	-116.5767	130.102
230.820	952.04	-0.4648	-116.6282	130.093
230.945	952.03	-0.4650	-116.6595	130.093
231.070	952.03	-0.4650	-116.6792	130.085
231.195	952.03	-0.4651	-116.7021	130.081
231.320	952.03	-0.4653	-116.7408	130.080
231.445	952.03	-0.4653	-116.7508	130.077
231.570	952.03	-0.4654	-116.7661	130.079
231.695	952.03	-0.4655	-116.7995	130.079
231.820	952.03	-0.4656	-116.8303	130.080
231.945	952.03	-0.4658	-116.8647	130.080
232.070	952.03	-0.4659	-116.8916	130.076
232.195	952.03	-0.4660	-116.9113	130.062
232.320	952.03	-0.4661	-116.9327	130.060
232.445	952.03	-0.4661	-116.9497	130.058
232.570	952.03	-0.4663	-116.9851	130.055
232.695	952.03	-0.4663	-117.0065	130.052
232.820	952.03	-0.4665	-117.0327	130.054
232.945	952.03	-0.4665	-117.0446	130.052
233.070	952.03	-0.4666	-117.0682	130.048
233.195	952.03	-0.4667	-117.1006	130.053
233.320	952.03	-0.4668	-117.1080	130.052
233.445	952.03	-0.4669	-117.1392	130.042
233.570	952.03	-0.4670	-117.1690	130.039
233.695	952.03	-0.4670	-117.1741	130.033
233.820	952.03	-0.4671	-117.1989	130.034
233.945	952.03	-0.4672	-117.2234	130.037
234.070	952.03	-0.4672	-117.2296	130.039
234.195	952.03	-0.4673	-117.2426	130.044
234.320	952.03	-0.4674	-117.2617	130.057
234.445	952.03	-0.4674	-117.2789	130.061
234.570	952.03	-0.4675	-117.3019	130.058
234.695	952.03	-0.4676	-117.3227	130.060
234.820	952.03	-0.4678	-117.3604	130.060
234.945	952.03	-0.4678	-117.3738	130.063
235.070	952.03	-0.4679	-117.4001	130.062
235.195	952.03	-0.4680	-117.4189	130.060
235.320	952.03	-0.4681	-117.4508	130.059
235.445	952.03	-0.4683	-117.4861	130.051
235.570	952.03	-0.4684	-117.5118	130.043
235.695	952.03	-0.4684	-117.5250	130.041
235.820	952.03	-0.4685	-117.5570	130.041
235.945	952.03	-0.4686	-117.5776	130.036
236.070	952.03	-0.4687	-117.5876	130.036
236.195	952.03	-0.4687	-117.6060	130.040
236.320	952.03	-0.4688	-117.6232	130.043
236.445	952.03	-0.4689	-117.6397	130.041
236.570	952.03	-0.4689	-117.6559	130.033
236.695	952.03	-0.4691	-117.6910	130.035
236.820	952.03	-0.4692	-117.7223	130.041
236.945	952.03	-0.4693	-117.7410	130.039
237.062		-0.4693	-117.7509

[step]
Equilibrate 30.00 °C
Time	Temperature	Weight	Weight	Heat Flow
min	°C	%	µg	mW