Folder: tga_data_analysis/example/proximate

Note: README.md
# PyTGA - Thermogravimetric Analysis in Python

## Overview
PyTGA is a Python module designed for conducting and analyzing Thermogravimetric Analysis (TGA) experiments. It offers tools for loading, processing, and analyzing TGA data, focusing on proximate and oxidation analysis, solid distillation analysis, and deconvolution analysis.

## Features
- **Data Loading**: Supports loading TGA data from files.
- **Proximate Analysis**: Calculates moisture, ash, and volatile matter.
- **Oxidation Analysis**: Computes Ti, Tp, Tb, etc.
- **Solid Distillation Analysis**: Analyzes solid distillation over time.
- **Deconvolution Analysis**: Deconvolutes TGA curves for peak analysis.
- **Plotting and Visualization**: Functions for TGA data visualization.

File: MIS_3.txt
Time	Temperature	Weight	Weight	Heat Flow
min	°C	%	mg	mW
0.003		99.9860	9.9227
0.037		99.9904	9.9231
0.070	21.91	100.0140	9.9254	-17.346
0.103	21.91	100.0263	9.9267	-17.386
0.137	21.90	100.0284	9.9269	-17.431
0.170	21.90	100.0272	9.9268	-17.475
0.203	21.90	100.0230	9.9263	-17.521
0.237	21.91	100.0161	9.9257	-17.578
0.270	21.92	100.0066	9.9247	-17.643
0.303	21.93	99.9943	9.9235	-17.714
0.337	21.96	99.9794	9.9220	-17.786
0.370	21.99	99.9621	9.9203	-17.864
0.403	22.03	99.9431	9.9184	-17.950
0.437	22.08	99.9227	9.9164	-18.041
0.470	22.15	99.9010	9.9142	-18.135
0.503	22.22	99.8783	9.9120	-18.233
0.537	22.31	99.8547	9.9096	-18.335
0.570	22.40	99.8305	9.9072	-18.440
0.603	22.51	99.8058	9.9048	-18.547
0.637	22.63	99.7810	9.9023	-18.661
0.670	22.76	99.7563	9.8999	-18.775
0.703	22.91	99.7321	9.8975	-18.888
0.737	23.07	99.7084	9.8951	-19.001
0.770	23.23	99.6856	9.8929	-19.116
0.803	23.42	99.6636	9.8907	-19.225
0.837	23.61	99.6426	9.8886	-19.325
0.870	23.82	99.6224	9.8866	-19.420
0.903	24.04	99.6030	9.8847	-19.507
0.937	24.27	99.5842	9.8828	-19.588
0.970	24.51	99.5660	9.8810	-19.656
1.003	24.76	99.5481	9.8792	-19.713
1.037	25.03	99.5303	9.8774	-19.758
1.070	25.30	99.5126	9.8757	-19.791
1.103	25.59	99.4948	9.8739	-19.817
1.137	25.88	99.4768	9.8721	-19.833
1.170	26.19	99.4585	9.8703	-19.842
1.203	26.50	99.4398	9.8685	-19.844
1.237	26.82	99.4209	9.8666	-19.842
1.270	27.15	99.4016	9.8647	-19.830
1.303	27.49	99.3819	9.8627	-19.806
1.337	27.83	99.3619	9.8607	-19.769
1.370	28.18	99.3414	9.8587	-19.726
1.403	28.54	99.3206	9.8566	-19.678
1.437	28.90	99.2994	9.8545	-19.624
1.470	29.27	99.2779	9.8524	-19.566
1.503	29.64	99.2560	9.8502	-19.502
1.537	30.01	99.2337	9.8480	-19.435
1.570	30.39	99.2112	9.8458	-19.361
1.603	30.78	99.1883	9.8435	-19.282
1.637	31.16	99.1650	9.8412	-19.198
1.670	31.55	99.1415	9.8389	-19.111
1.703	31.94	99.1176	9.8365	-19.021
1.737	32.34	99.0933	9.8341	-18.928
1.770	32.74	99.0687	9.8316	-18.829
1.803	33.13	99.0437	9.8292	-18.727
1.837	33.53	99.0183	9.8266	-18.623
1.870	33.93	98.9924	9.8241	-18.515
1.903	34.33	98.9663	9.8215	-18.405
1.937	34.74	98.9397	9.8188	-18.291
1.970	35.14	98.9129	9.8162	-18.173
2.003	35.54	98.8856	9.8135	-18.056
2.037	35.94	98.8580	9.8107	-17.937
2.070	36.34	98.8299	9.8079	-17.815
2.103	36.74	98.8015	9.8051	-17.691
2.137	37.14	98.7727	9.8023	-17.566
2.170	37.54	98.7436	9.7994	-17.440
2.203	37.94	98.7141	9.7964	-17.314
2.237	38.33	98.6842	9.7935	-17.185
2.270	38.73	98.6539	9.7905	-17.057
2.303	39.12	98.6233	9.7874	-16.928
2.337	39.51	98.5923	9.7844	-16.797
2.370	39.91	98.5610	9.7812	-16.665
2.403	40.29	98.5292	9.7781	-16.534
2.437	40.68	98.4971	9.7749	-16.402
2.470	41.07	98.4647	9.7717	-16.267
2.503	41.45	98.4320	9.7684	-16.135
2.537	41.83	98.3988	9.7652	-16.005
2.570	42.21	98.3654	9.7618	-15.875
2.603	42.59	98.3316	9.7585	-15.743
2.637	42.96	98.2975	9.7551	-15.612
2.670	43.34	98.2630	9.7517	-15.482
2.703	43.71	98.2282	9.7482	-15.352
2.737	44.08	98.1930	9.7447	-15.223
2.770	44.45	98.1574	9.7412	-15.095
2.803	44.81	98.1216	9.7376	-14.967
2.837	45.18	98.0855	9.7341	-14.840
2.870	45.54	98.0491	9.7304	-14.711
2.903	45.90	98.0123	9.7268	-14.584
2.937	46.26	97.9752	9.7231	-14.457
2.970	46.62	97.9379	9.7194	-14.333
3.003	46.97	97.9003	9.7157	-14.209
3.037	47.33	97.8623	9.7119	-14.086
3.070	47.68	97.8240	9.7081	-13.964
3.103	48.03	97.7852	9.7043	-13.841
3.137	48.38	97.7463	9.7004	-13.719
3.170	48.72	97.7071	9.6965	-13.601
3.203	49.07	97.6674	9.6926	-13.483
3.237	49.42	97.6273	9.6886	-13.366
3.270	49.76	97.5871	9.6846	-13.248
3.303	50.10	97.5467	9.6806	-13.132
3.337	50.44	97.5061	9.6766	-13.015
3.370	50.78	97.4653	9.6725	-12.899
3.403	51.12	97.4242	9.6684	-12.784
3.437	51.46	97.3829	9.6643	-12.670
3.470	51.80	97.3412	9.6602	-12.555
3.503	52.14	97.2993	9.6560	-12.443
3.537	52.47	97.2576	9.6519	-12.333
3.570	52.81	97.2158	9.6477	-12.221
3.603	53.14	97.1738	9.6436	-12.109
3.637	53.48	97.1315	9.6394	-11.996
3.670	53.81	97.0892	9.6352	-11.886
3.703	54.15	97.0466	9.6310	-11.775
3.737	54.48	97.0040	9.6267	-11.666
3.770	54.81	96.9615	9.6225	-11.556
3.803	55.15	96.9193	9.6183	-11.448
3.837	55.48	96.8774	9.6142	-11.338
3.870	55.81	96.8358	9.6100	-11.227
3.903	56.15	96.7941	9.6059	-11.119
3.937	56.48	96.7519	9.6017	-11.011
3.970	56.81	96.7100	9.5976	-10.902
4.003	57.14	96.6682	9.5934	-10.795
4.037	57.47	96.6265	9.5893	-10.691
4.070	57.81	96.5847	9.5851	-10.586
4.103	58.14	96.5432	9.5810	-10.477
4.137	58.47	96.5020	9.5769	-10.370
4.170	58.81	96.4610	9.5728	-10.263
4.203	59.14	96.4201	9.5688	-10.156
4.237	59.47	96.3792	9.5647	-10.047
4.270	59.81	96.3386	9.5607	-9.937
4.303	60.14	96.2981	9.5567	-9.829
4.337	60.48	96.2575	9.5527	-9.720
4.370	60.81	96.2170	9.5486	-9.610
4.403	61.15	96.1764	9.5446	-9.502
4.437	61.48	96.1361	9.5406	-9.395
4.470	61.82	96.0963	9.5367	-9.284
4.503	62.15	96.0568	9.5327	-9.175
4.537	62.49	96.0174	9.5288	-9.067
4.570	62.83	95.9782	9.5249	-8.958
4.603	63.16	95.9390	9.5210	-8.849
4.637	63.50	95.8999	9.5172	-8.739
4.670	63.84	95.8608	9.5133	-8.628
4.703	64.18	95.8218	9.5094	-8.516
4.737	64.52	95.7830	9.5056	-8.403
4.770	64.86	95.7443	9.5017	-8.288
4.803	65.20	95.7058	9.4979	-8.176
4.837	65.54	95.6674	9.4941	-8.065
4.870	65.88	95.6291	9.4903	-7.953
4.903	66.22	95.5911	9.4865	-7.840
4.937	66.56	95.5532	9.4828	-7.725
4.970	66.90	95.5156	9.4790	-7.608
5.003	67.24	95.4782	9.4753	-7.492
5.037	67.58	95.4411	9.4716	-7.376
5.070	67.93	95.4043	9.4680	-7.260
5.103	68.27	95.3677	9.4643	-7.144
5.137	68.61	95.3314	9.4607	-7.024
5.170	68.96	95.2953	9.4572	-6.904
5.203	69.30	95.2595	9.4536	-6.786
5.237	69.64	95.2240	9.4501	-6.669
5.270	69.99	95.1888	9.4466	-6.551
5.303	70.33	95.1540	9.4431	-6.431
5.337	70.68	95.1194	9.4397	-6.311
5.370	71.02	95.0852	9.4363	-6.192
5.403	71.37	95.0513	9.4329	-6.072
5.437	71.72	95.0177	9.4296	-5.951
5.470	72.06	94.9845	9.4263	-5.830
5.503	72.41	94.9516	9.4231	-5.708
5.537	72.75	94.9191	9.4198	-5.587
5.570	73.10	94.8869	9.4166	-5.467
5.603	73.45	94.8550	9.4135	-5.345
5.637	73.79	94.8235	9.4103	-5.222
5.670	74.14	94.7925	9.4073	-5.099
5.703	74.49	94.7617	9.4042	-4.976
5.737	74.83	94.7313	9.4012	-4.852
5.770	75.18	94.7013	9.3982	-4.728
5.803	75.53	94.6716	9.3953	-4.604
5.837	75.88	94.6424	9.3924	-4.482
5.870	76.22	94.6134	9.3895	-4.361
5.903	76.57	94.5849	9.3867	-4.236
5.937	76.92	94.5567	9.3839	-4.113
5.970	77.27	94.5290	9.3811	-3.992
6.003	77.62	94.5016	9.3784	-3.867
6.037	77.96	94.4746	9.3757	-3.742
6.070	78.31	94.4480	9.3731	-3.616
6.103	78.66	94.4217	9.3705	-3.491
6.137	79.01	94.3958	9.3679	-3.366
6.170	79.36	94.3703	9.3654	-3.239
6.203	79.71	94.3451	9.3629	-3.114
6.237	80.05	94.3204	9.3604	-2.989
6.270	80.40	94.2961	9.3580	-2.865
6.303	80.75	94.2721	9.3556	-2.739
6.337	81.10	94.2486	9.3533	-2.614
6.370	81.45	94.2253	9.3510	-2.489
6.403	81.80	94.2025	9.3487	-2.365
6.437	82.15	94.1801	9.3465	-2.240
6.470	82.49	94.1580	9.3443	-2.115
6.503	82.84	94.1362	9.3421	-1.991
6.537	83.19	94.1149	9.3400	-1.867
6.570	83.54	94.0940	9.3379	-1.743
6.603	83.89	94.0734	9.3359	-1.620
6.637	84.23	94.0531	9.3339	-1.494
6.670	84.58	94.0332	9.3319	-1.370
6.703	84.93	94.0137	9.3300	-1.245
6.737	85.28	93.9945	9.3281	-1.121
6.770	85.63	93.9756	9.3262	-0.995
6.803	85.98	93.9572	9.3244	-0.872
6.837	86.32	93.9390	9.3226	-0.749
6.870	86.67	93.9213	9.3208	-0.628
6.903	87.02	93.9038	9.3191	-0.507
6.937	87.37	93.8867	9.3174	-0.387
6.970	87.71	93.8700	9.3157	-0.267
7.003	88.06	93.8536	9.3141	-0.146
7.037	88.41	93.8375	9.3125	-0.025
7.070	88.76	93.8218	9.3109	0.095
7.103	89.11	93.8063	9.3094	0.213
7.137	89.45	93.7911	9.3079	0.331
7.170	89.80	93.7763	9.3064	0.450
7.203	90.15	93.7618	9.3050	0.570
7.237	90.50	93.7476	9.3036	0.685
7.270	90.84	93.7338	9.3022	0.799
7.303	91.19	93.7203	9.3009	0.914
7.337	91.54	93.7071	9.2995	1.030
7.370	91.89	93.6941	9.2983	1.145
7.403	92.23	93.6815	9.2970	1.258
7.437	92.58	93.6692	9.2958	1.373
7.470	92.93	93.6571	9.2946	1.486
7.503	93.27	93.6453	9.2934	1.599
7.537	93.62	93.6337	9.2923	1.709
7.570	93.97	93.6224	9.2911	1.822
7.603	94.31	93.6114	9.2900	1.933
7.637	94.66	93.6006	9.2890	2.039
7.670	95.01	93.5901	9.2879	2.147
7.703	95.35	93.5798	9.2869	2.256
7.737	95.70	93.5697	9.2859	2.365
7.770	96.05	93.5599	9.2849	2.471
7.803	96.39	93.5502	9.2840	2.578
7.837	96.74	93.5409	9.2831	2.682
7.870	97.09	93.5318	9.2822	2.788
7.903	97.43	93.5229	9.2813	2.893
7.937	97.78	93.5143	9.2804	2.998
7.970	98.12	93.5059	9.2796	3.103
8.003	98.47	93.4977	9.2788	3.206
8.037	98.81	93.4897	9.2780	3.306
8.070	99.16	93.4819	9.2772	3.408
8.103	99.50	93.4744	9.2765	3.510
8.137	99.85	93.4670	9.2757	3.611
8.170	100.20	93.4599	9.2750	3.709
8.203	100.54	93.4529	9.2743	3.805
8.237	100.89	93.4461	9.2736	3.900
8.270	101.23	93.4394	9.2730	3.996
8.303	101.58	93.4330	9.2723	4.092
8.337	101.92	93.4268	9.2717	4.187
8.370	102.27	93.4207	9.2711	4.280
8.403	102.61	93.4147	9.2705	4.372
8.437	102.96	93.4089	9.2700	4.464
8.470	103.30	93.4032	9.2694	4.556
8.503	103.65	93.3977	9.2688	4.648
8.537	103.99	93.3924	9.2683	4.740
8.570	104.34	93.3871	9.2678	4.830
8.603	104.68	93.3820	9.2673	4.918
8.637	105.03	93.3771	9.2668	5.006
8.670	105.37	93.3723	9.2663	5.092
8.703	105.72	93.3677	9.2659	5.179
8.737	106.06	93.3631	9.2654	5.266

[step]
Isothermal 30.0 min
Time	Temperature	Weight	Weight	Heat Flow
min	°C	%	mg	mW
8.745	106.15	93.3620	9.2653	5.288
8.853	107.26	93.3479	9.2639	5.571
8.962	108.35	93.3350	9.2626	5.876
9.070	109.36	93.3228	9.2614	6.227
9.178	110.28	93.3113	9.2603	6.604
9.287	111.09	93.3005	9.2592	7.019
9.395	111.78	93.2904	9.2582	7.445
9.503	112.35	93.2809	9.2572	7.879
9.612	112.78	93.2719	9.2564	8.314
9.720	113.09	93.2633	9.2555	8.731
9.828	113.28	93.2553	9.2547	9.098
9.937	113.37	93.2481	9.2540	9.418
10.045	113.38	93.2413	9.2533	9.693
10.153	113.31	93.2349	9.2527	9.917
10.262	113.19	93.2290	9.2521	10.077
10.370	113.06	93.2238	9.2516	10.173
10.478	112.90	93.2193	9.2511	10.225
10.587	112.74	93.2153	9.2507	10.251
10.695	112.57	93.2118	9.2504	10.259
10.803	112.42	93.2086	9.2501	10.252
10.912	112.28	93.2056	9.2498	10.220
11.020	112.16	93.2031	9.2495	10.170
11.128	112.06	93.2006	9.2493	10.118
11.237	111.97	93.1985	9.2491	10.055
11.345	111.92	93.1968	9.2489	9.991
11.453	111.88	93.1951	9.2487	9.939
11.562	111.87	93.1935	9.2486	9.885
11.670	111.88	93.1920	9.2484	9.845
11.778	111.90	93.1905	9.2483	9.808
11.887	111.95	93.1892	9.2481	9.779
11.995	112.00	93.1880	9.2480	9.757
12.103	112.07	93.1869	9.2479	9.743
12.212	112.15	93.1858	9.2478	9.731
12.320	112.23	93.1848	9.2477	9.723
12.428	112.31	93.1837	9.2476	9.719
12.537	112.40	93.1827	9.2475	9.722
12.645	112.49	93.1818	9.2474	9.731
12.753	112.57	93.1808	9.2473	9.747
12.862	112.65	93.1797	9.2472	9.765
12.970	112.72	93.1787	9.2471	9.790
13.078	112.79	93.1777	9.2470	9.813
13.187	112.86	93.1769	9.2469	9.838
13.295	112.91	93.1760	9.2468	9.864
13.403	112.96	93.1751	9.2468	9.884
13.512	113.00	93.1742	9.2467	9.907
13.620	113.04	93.1734	9.2466	9.930
13.728	113.07	93.1725	9.2465	9.943
13.837	113.09	93.1717	9.2464	9.960
13.945	113.11	93.1708	9.2463	9.975
14.053	113.13	93.1699	9.2462	9.987
14.162	113.14	93.1689	9.2461	9.996
14.270	113.14	93.1681	9.2461	10.002
14.378	113.15	93.1675	9.2460	10.008
14.487	113.15	93.1669	9.2459	10.012
14.595	113.15	93.1662	9.2459	10.014
14.703	113.16	93.1655	9.2458	10.011
14.812	113.16	93.1647	9.2457	10.007
14.920	113.16	93.1639	9.2456	10.005
15.028	113.16	93.1633	9.2456	10.003
15.137	113.16	93.1627	9.2455	10.000
15.245	113.16	93.1621	9.2455	9.993
15.353	113.17	93.1614	9.2454	9.987
15.462	113.17	93.1608	9.2453	9.981
15.570	113.18	93.1603	9.2453	9.976
15.678	113.18	93.1596	9.2452	9.970
15.787	113.19	93.1591	9.2452	9.963
15.895	113.20	93.1585	9.2451	9.957
16.003	113.20	93.1579	9.2450	9.951
16.112	113.21	93.1573	9.2450	9.945
16.220	113.22	93.1566	9.2449	9.939
16.328	113.23	93.1561	9.2449	9.933
16.437	113.24	93.1556	9.2448	9.928
16.545	113.25	93.1551	9.2448	9.925
16.653	113.26	93.1546	9.2447	9.921
16.762	113.26	93.1541	9.2447	9.918
16.870	113.27	93.1535	9.2446	9.915
16.978	113.28	93.1530	9.2446	9.911
17.087	113.29	93.1526	9.2445	9.907
17.195	113.29	93.1521	9.2445	9.905
17.303	113.30	93.1518	9.2444	9.901
17.412	113.30	93.1513	9.2444	9.896
17.520	113.31	93.1508	9.2443	9.893
17.628	113.31	93.1502	9.2443	9.890
17.737	113.32	93.1498	9.2442	9.886
17.845	113.32	93.1493	9.2442	9.883
17.953	113.32	93.1489	9.2441	9.881
18.062	113.32	93.1484	9.2441	9.876
18.170	113.33	93.1480	9.2441	9.873
18.278	113.33	93.1475	9.2440	9.870
18.387	113.33	93.1470	9.2440	9.865
18.495	113.33	93.1467	9.2439	9.859
18.603	113.33	93.1463	9.2439	9.855
18.712	113.33	93.1459	9.2439	9.851
18.820	113.33	93.1455	9.2438	9.847
18.928	113.33	93.1450	9.2438	9.842
19.037	113.33	93.1445	9.2437	9.835
19.145	113.33	93.1440	9.2437	9.830
19.253	113.33	93.1436	9.2436	9.826
19.362	113.33	93.1432	9.2436	9.821
19.470	113.33	93.1428	9.2435	9.814
19.578	113.33	93.1425	9.2435	9.809
19.687	113.33	93.1420	9.2435	9.803
19.795	113.33	93.1416	9.2434	9.798
19.903	113.33	93.1411	9.2434	9.793
20.012	113.33	93.1407	9.2433	9.785
20.120	113.33	93.1403	9.2433	9.780
20.228	113.33	93.1398	9.2432	9.776
20.337	113.33	93.1393	9.2432	9.773
20.445	113.33	93.1389	9.2432	9.767
20.553	113.33	93.1386	9.2431	9.759
20.662	113.33	93.1384	9.2431	9.756
20.770	113.33	93.1381	9.2431	9.751
20.878	113.33	93.1377	9.2430	9.744
20.987	113.33	93.1373	9.2430	9.739
21.095	113.33	93.1370	9.2430	9.736
21.203	113.33	93.1366	9.2429	9.732
21.312	113.33	93.1363	9.2429	9.726
21.420	113.34	93.1359	9.2429	9.721
21.528	113.33	93.1355	9.2428	9.715
21.637	113.33	93.1353	9.2428	9.709
21.745	113.33	93.1349	9.2428	9.703
21.853	113.33	93.1345	9.2427	9.697
21.962	113.33	93.1341	9.2427	9.692
22.070	113.33	93.1337	9.2426	9.686
22.178	113.33	93.1333	9.2426	9.680
22.287	113.33	93.1330	9.2426	9.673
22.395	113.33	93.1327	9.2425	9.669
22.503	113.33	93.1323	9.2425	9.666
22.612	113.33	93.1318	9.2425	9.662
22.720	113.33	93.1314	9.2424	9.657
22.828	113.33	93.1311	9.2424	9.651
22.937	113.33	93.1308	9.2424	9.648
23.045	113.33	93.1304	9.2423	9.642
23.153	113.33	93.1301	9.2423	9.638
23.262	113.32	93.1298	9.2423	9.633
23.370	113.32	93.1294	9.2422	9.628
23.478	113.32	93.1289	9.2422	9.623
23.587	113.32	93.1285	9.2421	9.616
23.695	113.32	93.1283	9.2421	9.611
23.803	113.32	93.1282	9.2421	9.608
23.912	113.32	93.1278	9.2421	9.603
24.020	113.32	93.1273	9.2420	9.599
24.128	113.32	93.1270	9.2420	9.593
24.237	113.32	93.1265	9.2419	9.587
24.345	113.32	93.1262	9.2419	9.581
24.453	113.32	93.1258	9.2419	9.577
24.562	113.32	93.1255	9.2418	9.571
24.670	113.31	93.1253	9.2418	9.566
24.778	113.31	93.1251	9.2418	9.562
24.887	113.31	93.1248	9.2418	9.557
24.995	113.31	93.1245	9.2417	9.554
25.103	113.31	93.1242	9.2417	9.549
25.212	113.31	93.1239	9.2417	9.544
25.320	113.31	93.1236	9.2416	9.540
25.428	113.31	93.1234	9.2416	9.537
25.537	113.31	93.1231	9.2416	9.533
25.645	113.31	93.1228	9.2416	9.528
25.753	113.31	93.1225	9.2415	9.523
25.862	113.31	93.1223	9.2415	9.516
25.970	113.30	93.1221	9.2415	9.512
26.078	113.30	93.1219	9.2415	9.508
26.187	113.30	93.1216	9.2414	9.503
26.295	113.30	93.1212	9.2414	9.498
26.403	113.30	93.1209	9.2414	9.494
26.512	113.30	93.1209	9.2414	9.491
26.620	113.30	93.1206	9.2413	9.485
26.728	113.30	93.1201	9.2413	9.479
26.837	113.30	93.1198	9.2413	9.474
26.945	113.30	93.1195	9.2412	9.470
27.053	113.30	93.1193	9.2412	9.466
27.162	113.30	93.1190	9.2412	9.462
27.270	113.30	93.1188	9.2412	9.458
27.378	113.30	93.1186	9.2411	9.452
27.487	113.29	93.1185	9.2411	9.447
27.595	113.30	93.1181	9.2411	9.444
27.703	113.29	93.1179	9.2411	9.440
27.812	113.29	93.1176	9.2410	9.436
27.920	113.29	93.1171	9.2410	9.433
28.028	113.29	93.1171	9.2410	9.429
28.137	113.29	93.1169	9.2410	9.425
28.245	113.29	93.1166	9.2409	9.421
28.353	113.29	93.1162	9.2409	9.417
28.462	113.29	93.1160	9.2409	9.413
28.570	113.29	93.1157	9.2409	9.411
28.678	113.29	93.1155	9.2408	9.407
28.787	113.29	93.1151	9.2408	9.401
28.895	113.29	93.1148	9.2408	9.398
29.003	113.29	93.1145	9.2407	9.394
29.112	113.29	93.1142	9.2407	9.389
29.220	113.28	93.1138	9.2407	9.384
29.328	113.28	93.1136	9.2406	9.378
29.437	113.28	93.1134	9.2406	9.373
29.545	113.28	93.1130	9.2406	9.371
29.653	113.28	93.1127	9.2406	9.368
29.762	113.28	93.1123	9.2405	9.365
29.870	113.28	93.1122	9.2405	9.361
29.978	113.28	93.1119	9.2405	9.357
30.087	113.28	93.1119	9.2405	9.352
30.195	113.28	93.1117	9.2405	9.348
30.303	113.28	93.1116	9.2404	9.345
30.412	113.28	93.1113	9.2404	9.341
30.520	113.27	93.1111	9.2404	9.334
30.628	113.28	93.1107	9.2404	9.330
30.737	113.27	93.1106	9.2403	9.326
30.845	113.27	93.1103	9.2403	9.321
30.953	113.27	93.1101	9.2403	9.317
31.062	113.27	93.1099	9.2403	9.314
31.170	113.27	93.1095	9.2402	9.312
31.278	113.27	93.1094	9.2402	9.308
31.387	113.27	93.1092	9.2402	9.304
31.495	113.27	93.1091	9.2402	9.300
31.603	113.27	93.1087	9.2402	9.298
31.712	113.27	93.1085	9.2401	9.295
31.820	113.27	93.1084	9.2401	9.292
31.928	113.27	93.1083	9.2401	9.288
32.037	113.27	93.1079	9.2401	9.284
32.145	113.27	93.1077	9.2401	9.280
32.253	113.27	93.1075	9.2400	9.275
32.362	113.27	93.1072	9.2400	9.271
32.470	113.27	93.1067	9.2400	9.269
32.578	113.26	93.1064	9.2399	9.265
32.687	113.27	93.1062	9.2399	9.263
32.795	113.26	93.1060	9.2399	9.260
32.903	113.26	93.1057	9.2399	9.255
33.012	113.26	93.1054	9.2398	9.252
33.120	113.26	93.1053	9.2398	9.248
33.228	113.26	93.1051	9.2398	9.243
33.337	113.26	93.1049	9.2398	9.239
33.445	113.26	93.1047	9.2398	9.235
33.553	113.26	93.1044	9.2397	9.232
33.662	113.26	93.1042	9.2397	9.230
33.770	113.26	93.1040	9.2397	9.228
33.878	113.26	93.1036	9.2397	9.221
[...]
156.362	949.44	-0.0221	-0.0022	30.913
156.478	949.46	-0.0230	-0.0023	31.344
156.595	949.48	-0.0241	-0.0024	31.761
156.712	949.49	-0.0252	-0.0025	32.137
156.828	949.51	-0.0263	-0.0026	32.506
156.945	949.53	-0.0271	-0.0027	32.871
157.062	949.54	-0.0280	-0.0028	33.215
157.178	949.55	-0.0290	-0.0029	33.567
157.295	949.57	-0.0301	-0.0030	33.886
157.412	949.58	-0.0310	-0.0031	34.203
157.528	949.59	-0.0320	-0.0032	34.496
157.645	949.60	-0.0331	-0.0033	34.757
157.762	949.61	-0.0341	-0.0034	35.014
157.878	949.62	-0.0351	-0.0035	35.278
157.995	949.63	-0.0360	-0.0036	35.553
158.112	949.64	-0.0369	-0.0037	35.783
158.228	949.65	-0.0378	-0.0038	36.010
158.345	949.66	-0.0387	-0.0038	36.244
158.462	949.66	-0.0396	-0.0039	36.458
158.578	949.67	-0.0404	-0.0040	36.663
158.695	949.68	-0.0413	-0.0041	36.838
158.812	949.69	-0.0422	-0.0042	37.047
158.928	949.69	-0.0429	-0.0043	37.214
159.045	949.70	-0.0437	-0.0043	37.402
159.162	949.70	-0.0445	-0.0044	37.585
159.278	949.71	-0.0452	-0.0045	37.799
159.395	949.72	-0.0460	-0.0046	37.978
159.512	949.72	-0.0467	-0.0046	38.170
159.628	949.73	-0.0477	-0.0047	38.344
159.745	949.73	-0.0483	-0.0048	38.494
159.862	949.74	-0.0493	-0.0049	38.599
159.978	949.74	-0.0501	-0.0050	38.768
160.095	949.75	-0.0508	-0.0050	38.911
160.212	949.75	-0.0515	-0.0051	39.066
160.328	949.76	-0.0523	-0.0052	39.199
160.445	949.76	-0.0532	-0.0053	39.335
160.562	949.77	-0.0541	-0.0054	39.472
160.678	949.77	-0.0551	-0.0055	39.638
160.795	949.78	-0.0558	-0.0055	39.757
160.912	949.78	-0.0565	-0.0056	39.887
161.028	949.78	-0.0570	-0.0057	40.016
161.145	949.79	-0.0577	-0.0057	40.159
161.262	949.79	-0.0584	-0.0058	40.312
161.378	949.79	-0.0590	-0.0059	40.442
161.495	949.80	-0.0597	-0.0059	40.556
161.612	949.80	-0.0604	-0.0060	40.683
161.728	949.80	-0.0608	-0.0060	40.793
161.845	949.81	-0.0615	-0.0061	40.898
161.962	949.81	-0.0623	-0.0062	41.010
162.078	949.81	-0.0629	-0.0062	41.127
162.195	949.82	-0.0635	-0.0063	41.276
162.312	949.82	-0.0641	-0.0064	41.368
162.428	949.82	-0.0647	-0.0064	41.508
162.545	949.83	-0.0655	-0.0065	41.607
162.662	949.83	-0.0661	-0.0066	41.702
162.778	949.83	-0.0667	-0.0066	41.793
162.895	949.84	-0.0673	-0.0067	41.900
163.012	949.84	-0.0680	-0.0068	41.994
163.128	949.84	-0.0688	-0.0068	42.079
163.245	949.84	-0.0695	-0.0069	42.207
163.362	949.84	-0.0702	-0.0070	42.321
163.478	949.85	-0.0710	-0.0070	42.405
163.595	949.85	-0.0720	-0.0071	42.503
163.712	949.85	-0.0728	-0.0072	42.620
163.828	949.85	-0.0736	-0.0073	42.721
163.945	949.86	-0.0743	-0.0074	42.810
164.062	949.86	-0.0751	-0.0075	42.919
164.178	949.86	-0.0757	-0.0075	42.996
164.295	949.86	-0.0762	-0.0076	43.064
164.412	949.87	-0.0768	-0.0076	43.133
164.528	949.87	-0.0775	-0.0077	43.214
164.645	949.87	-0.0782	-0.0078	43.291
164.762	949.87	-0.0787	-0.0078	43.401
164.878	949.87	-0.0792	-0.0079	43.501
164.995	949.88	-0.0799	-0.0079	43.613
165.112	949.88	-0.0804	-0.0080	43.670
165.228	949.88	-0.0812	-0.0081	43.733
165.345	949.88	-0.0819	-0.0081	43.813
165.462	949.88	-0.0824	-0.0082	43.874
165.578	949.89	-0.0829	-0.0082	44.002
165.695	949.89	-0.0835	-0.0083	44.100
165.812	949.89	-0.0844	-0.0084	44.182
165.928	949.89	-0.0850	-0.0084	44.256
166.045	949.89	-0.0853	-0.0085	44.316
166.162	949.90	-0.0858	-0.0085	44.387
166.278	949.90	-0.0865	-0.0086	44.442
166.395	949.90	-0.0871	-0.0086	44.510
166.512	949.90	-0.0877	-0.0087	44.586
166.628	949.90	-0.0883	-0.0088	44.658
166.745	949.90	-0.0889	-0.0088	44.727
166.862	949.91	-0.0894	-0.0089	44.819
166.978	949.91	-0.0901	-0.0089	44.894
167.095	949.91	-0.0905	-0.0090	44.969
167.212	949.91	-0.0911	-0.0090	45.033
167.328	949.91	-0.0918	-0.0091	45.120
167.445	949.91	-0.0925	-0.0092	45.196
167.562	949.91	-0.0931	-0.0092	45.259
167.678	949.92	-0.0936	-0.0093	45.316
167.795	949.92	-0.0942	-0.0093	45.396
167.912	949.92	-0.0949	-0.0094	45.461
168.028	949.92	-0.0955	-0.0095	45.525
168.145	949.92	-0.0960	-0.0095	45.587
168.262	949.92	-0.0966	-0.0096	45.660
168.378	949.92	-0.0971	-0.0096	45.722
168.495	949.92	-0.0976	-0.0097	45.792
168.612	949.93	-0.0983	-0.0098	45.854
168.728	949.93	-0.0989	-0.0098	45.926
168.845	949.93	-0.0995	-0.0099	45.996
168.962	949.93	-0.1001	-0.0099	46.055
169.078	949.93	-0.1006	-0.0100	46.124
169.195	949.94	-0.1012	-0.0100	46.175
169.312	949.94	-0.1017	-0.0101	46.224
169.428	949.94	-0.1022	-0.0101	46.268
169.545	949.94	-0.1028	-0.0102	46.328
169.662	949.94	-0.1035	-0.0103	46.377
169.778	949.94	-0.1042	-0.0103	46.426
169.895	949.94	-0.1049	-0.0104	46.481
170.012	949.94	-0.1054	-0.0105	46.538
170.128	949.95	-0.1059	-0.0105	46.604
170.245	949.95	-0.1065	-0.0106	46.648
170.362	949.95	-0.1071	-0.0106	46.715
170.478	949.95	-0.1077	-0.0107	46.788
170.595	949.95	-0.1084	-0.0108	46.867
170.712	949.95	-0.1090	-0.0108	46.916
170.828	949.95	-0.1096	-0.0109	46.973
170.945	949.95	-0.1100	-0.0109	47.009
171.062	949.95	-0.1105	-0.0110	47.070
171.178	949.96	-0.1113	-0.0110	47.118
171.295	949.96	-0.1117	-0.0111	47.176
171.412	949.96	-0.1122	-0.0111	47.225
171.528	949.96	-0.1127	-0.0112	47.275
171.645	949.96	-0.1133	-0.0112	47.316
171.762	949.96	-0.1140	-0.0113	47.378
171.878	949.96	-0.1148	-0.0114	47.439
171.995	949.96	-0.1153	-0.0114	47.501
172.112	949.96	-0.1158	-0.0115	47.559
172.228	949.97	-0.1162	-0.0115	47.595
172.345	949.97	-0.1167	-0.0116	47.626
172.462	949.97	-0.1173	-0.0116	47.672
172.578	949.97	-0.1179	-0.0117	47.710
172.695	949.97	-0.1185	-0.0118	47.760
172.812	949.97	-0.1191	-0.0118	47.816
172.928	949.97	-0.1194	-0.0119	47.866
173.045	949.97	-0.1202	-0.0119	47.911
173.162	949.97	-0.1208	-0.0120	47.957
173.278	949.98	-0.1213	-0.0120	47.999
173.395	949.98	-0.1218	-0.0121	48.038
173.512	949.98	-0.1225	-0.0122	48.070
173.628	949.98	-0.1230	-0.0122	48.126
173.745	949.98	-0.1235	-0.0123	48.173
173.862	949.98	-0.1239	-0.0123	48.209
173.978	949.98	-0.1244	-0.0123	48.239
174.095	949.98	-0.1249	-0.0124	48.274
174.212	949.98	-0.1254	-0.0124	48.303
174.328	949.98	-0.1261	-0.0125	48.338
174.445	949.98	-0.1266	-0.0126	48.370
174.562	949.99	-0.1272	-0.0126	48.405
174.678	949.99	-0.1278	-0.0127	48.442
174.795	949.99	-0.1283	-0.0127	48.481
174.912	949.99	-0.1287	-0.0128	48.530
175.028	949.99	-0.1291	-0.0128	48.570
175.145	949.99	-0.1296	-0.0129	48.610
175.262	949.99	-0.1301	-0.0129	48.645
175.378	949.99	-0.1306	-0.0130	48.674
175.495	949.99	-0.1311	-0.0130	48.704
175.612	949.99	-0.1316	-0.0131	48.750
175.728	949.99	-0.1320	-0.0131	48.797
175.845	949.99	-0.1326	-0.0132	48.837
175.962	949.99	-0.1332	-0.0132	48.871
176.078	949.99	-0.1338	-0.0133	48.893
176.195	950.00	-0.1343	-0.0133	48.926
176.312	950.00	-0.1349	-0.0134	48.951
176.428	950.00	-0.1354	-0.0134	48.975
176.545	950.00	-0.1362	-0.0135	49.015
176.662	950.00	-0.1366	-0.0136	49.044
176.778	950.00	-0.1369	-0.0136	49.070
176.895	950.00	-0.1374	-0.0136	49.094
177.012	950.00	-0.1379	-0.0137	49.127
177.128	950.00	-0.1385	-0.0137	49.178
177.245	950.00	-0.1391	-0.0138	49.220
177.362	950.00	-0.1396	-0.0139	49.251
177.478	950.00	-0.1399	-0.0139	49.282
177.595	950.01	-0.1403	-0.0139	49.304
177.712	950.01	-0.1409	-0.0140	49.335
177.828	950.01	-0.1415	-0.0140	49.375
177.945	950.01	-0.1420	-0.0141	49.396
178.062	950.01	-0.1426	-0.0142	49.414
178.178	950.01	-0.1432	-0.0142	49.433
178.295	950.01	-0.1436	-0.0143	49.450
178.412	950.01	-0.1441	-0.0143	49.486
178.528	950.01	-0.1446	-0.0143	49.528
178.645	950.01	-0.1451	-0.0144	49.572
178.762	950.01	-0.1457	-0.0145	49.600
178.878	950.01	-0.1462	-0.0145	49.631
178.995	950.01	-0.1468	-0.0146	49.664
179.112	950.01	-0.1473	-0.0146	49.701
179.228	950.01	-0.1479	-0.0147	49.729
179.345	950.01	-0.1483	-0.0147	49.752
179.462	950.01	-0.1488	-0.0148	49.782
179.578	950.02	-0.1494	-0.0148	49.814
179.695	950.02	-0.1500	-0.0149	49.844
179.812	950.02	-0.1507	-0.0150	49.893
179.928	950.02	-0.1511	-0.0150	49.916
180.045	950.02	-0.1517	-0.0151	49.947
180.162	950.02	-0.1522	-0.0151	49.993
180.278	950.02	-0.1527	-0.0152	50.017
180.395	950.02	-0.1532	-0.0152	50.043
180.512	950.02	-0.1539	-0.0153	50.079
180.628	950.02	-0.1544	-0.0153	50.109
180.745	950.02	-0.1549	-0.0154	50.132
180.862	950.02	-0.1553	-0.0154	50.165
180.978	950.03	-0.1557	-0.0155	50.195
181.095	950.03	-0.1565	-0.0155	50.206
181.212	950.03	-0.1569	-0.0156	50.227
181.328	950.03	-0.1574	-0.0156	50.255
181.445	950.03	-0.1579	-0.0157	50.284
181.562	950.03	-0.1582	-0.0157	50.314
181.678	950.03	-0.1588	-0.0158	50.347
181.795	950.03	-0.1594	-0.0158	50.372
181.912	950.03	-0.1600	-0.0159	50.402
182.028	950.03	-0.1605	-0.0159	50.427
182.145	950.03	-0.1609	-0.0160	50.447
182.262	950.03	-0.1613	-0.0160	50.476
182.378	950.03	-0.1618	-0.0161	50.493
182.495	950.03	-0.1623	-0.0161	50.516
182.612	950.03	-0.1626	-0.0161	50.552
182.728		-0.1631	-0.0162
182.737		-0.1631	-0.0162