Folder: tga_data_analysis/example/soliddist

Note: README.md
# PyTGA - Thermogravimetric Analysis in Python

## Overview
PyTGA is a Python module designed for conducting and analyzing Thermogravimetric Analysis (TGA) experiments. It offers tools for loading, processing, and analyzing TGA data, focusing on proximate and oxidation analysis, solid distillation analysis, and deconvolution analysis.

## Features
- **Data Loading**: Supports loading TGA data from files.
- **Proximate Analysis**: Calculates moisture, ash, and volatile matter.
- **Oxidation Analysis**: Computes Ti, Tp, Tb, etc.
- **Solid Distillation Analysis**: Analyzes solid distillation over time.
- **Deconvolution Analysis**: Deconvolutes TGA curves for peak analysis.
- **Plotting and Visualization**: Functions for TGA data visualization.

File: SDa_2.txt
Time	Temperature	Weight	Weight	Heat Flow
min	°C	%	mg	mW
0.003		99.9942	10.8796
0.037		99.9900	10.8792
0.070	25.66	100.0020	10.8805	-22.696
0.103	25.98	100.0015	10.8804	-22.535
0.137	26.29	99.9970	10.8799	-22.387
0.170	26.60	99.9906	10.8792	-22.249
0.203	26.90	99.9824	10.8783	-22.124
0.237	27.19	99.9726	10.8773	-22.008
0.270	27.47	99.9610	10.8760	-21.900
0.303	27.75	99.9479	10.8746	-21.801
0.337	28.02	99.9332	10.8730	-21.708
0.370	28.28	99.9169	10.8712	-21.618
0.403	28.54	99.8991	10.8693	-21.536
0.437	28.79	99.8800	10.8672	-21.460
0.470	29.03	99.8597	10.8650	-21.389
0.503	29.27	99.8383	10.8627	-21.320
0.537	29.50	99.8160	10.8602	-21.252
0.570	29.72	99.7927	10.8577	-21.190
0.603	29.94	99.7686	10.8551	-21.130
0.637	30.15	99.7438	10.8524	-21.070
0.670	30.36	99.7184	10.8496	-21.012
0.703	30.56	99.6924	10.8468	-20.956
0.737	30.76	99.6659	10.8439	-20.900
0.770	30.96	99.6389	10.8410	-20.845
0.803	31.15	99.6117	10.8380	-20.790
0.837	31.35	99.5841	10.8350	-20.738
0.870	31.53	99.5563	10.8320	-20.687
0.903	31.72	99.5282	10.8289	-20.636
0.937	31.91	99.4999	10.8258	-20.586
0.970	32.10	99.4716	10.8228	-20.537
1.003	32.30	99.4432	10.8197	-20.487
1.037	32.49	99.4149	10.8166	-20.440
1.070	32.69	99.3864	10.8135	-20.394
1.103	32.89	99.3580	10.8104	-20.345
1.137	33.10	99.3297	10.8073	-20.292
1.170	33.31	99.3013	10.8042	-20.238
1.203	33.52	99.2730	10.8011	-20.184
1.237	33.74	99.2446	10.7981	-20.128
1.270	33.96	99.2161	10.7950	-20.071
1.303	34.19	99.1877	10.7919	-20.013
1.337	34.42	99.1592	10.7888	-19.950
1.370	34.66	99.1305	10.7856	-19.884
1.403	34.90	99.1019	10.7825	-19.815
1.437	35.15	99.0732	10.7794	-19.745
1.470	35.40	99.0445	10.7763	-19.673
1.503	35.65	99.0156	10.7731	-19.598
1.537	35.92	98.9866	10.7700	-19.518
1.570	36.18	98.9575	10.7668	-19.439
1.603	36.45	98.9283	10.7636	-19.357
1.637	36.73	98.8989	10.7604	-19.271
1.670	37.01	98.8694	10.7572	-19.183
1.703	37.29	98.8397	10.7540	-19.094
1.737	37.58	98.8100	10.7508	-19.002
1.770	37.88	98.7801	10.7475	-18.908
1.803	38.18	98.7501	10.7442	-18.811
1.837	38.48	98.7199	10.7410	-18.714
1.870	38.79	98.6896	10.7377	-18.615
1.903	39.10	98.6592	10.7344	-18.513
1.937	39.41	98.6286	10.7310	-18.412
1.970	39.73	98.5979	10.7277	-18.307
2.003	40.05	98.5670	10.7243	-18.200
2.037	40.38	98.5360	10.7210	-18.093
2.070	40.71	98.5048	10.7176	-17.987
2.103	41.04	98.4736	10.7142	-17.880
2.137	41.37	98.4422	10.7107	-17.766
2.170	41.71	98.4106	10.7073	-17.651
2.203	42.05	98.3789	10.7039	-17.538
2.237	42.39	98.3470	10.7004	-17.424
2.270	42.74	98.3150	10.6969	-17.308
2.303	43.09	98.2829	10.6934	-17.191
2.337	43.43	98.2506	10.6899	-17.074
2.370	43.79	98.2182	10.6864	-16.955
2.403	44.14	98.1856	10.6828	-16.835
2.437	44.49	98.1529	10.6793	-16.711
2.470	44.85	98.1201	10.6757	-16.587
2.503	45.20	98.0872	10.6721	-16.464
2.537	45.56	98.0541	10.6685	-16.339
2.570	45.92	98.0210	10.6649	-16.212
2.603	46.28	97.9879	10.6613	-16.082
2.637	46.64	97.9547	10.6577	-15.954
2.670	47.01	97.9214	10.6541	-15.824
2.703	47.37	97.8880	10.6504	-15.692
2.737	47.73	97.8545	10.6468	-15.560
2.770	48.09	97.8210	10.6432	-15.428
2.803	48.46	97.7874	10.6395	-15.295
2.837	48.82	97.7537	10.6358	-15.160
2.870	49.19	97.7199	10.6322	-15.024
2.903	49.55	97.6862	10.6285	-14.888
2.937	49.91	97.6524	10.6248	-14.753
2.970	50.28	97.6187	10.6211	-14.615
3.003	50.64	97.5849	10.6175	-14.476
3.037	51.01	97.5511	10.6138	-14.336
3.070	51.37	97.5174	10.6101	-14.197
3.103	51.74	97.4837	10.6065	-14.057
3.137	52.10	97.4501	10.6028	-13.918
3.170	52.46	97.4166	10.5992	-13.777
3.203	52.82	97.3832	10.5955	-13.638
3.237	53.19	97.3498	10.5919	-13.496
3.270	53.55	97.3164	10.5883	-13.351
3.303	53.91	97.2832	10.5847	-13.208
3.337	54.27	97.2501	10.5810	-13.066
3.370	54.63	97.2171	10.5775	-12.922
3.403	54.99	97.1841	10.5739	-12.776
3.437	55.35	97.1513	10.5703	-12.630
3.470	55.71	97.1186	10.5667	-12.485
3.503	56.07	97.0861	10.5632	-12.340
3.537	56.42	97.0538	10.5597	-12.196
3.570	56.78	97.0217	10.5562	-12.052
3.603	57.13	96.9898	10.5527	-11.906
3.637	57.49	96.9581	10.5493	-11.759
3.670	57.84	96.9266	10.5458	-11.614
3.703	58.20	96.8953	10.5424	-11.466
3.737	58.55	96.8643	10.5391	-11.320
3.770	58.90	96.8334	10.5357	-11.175
3.803	59.25	96.8027	10.5324	-11.032
3.837	59.61	96.7723	10.5291	-10.886
3.870	59.96	96.7421	10.5258	-10.740
3.903	60.31	96.7122	10.5225	-10.592
3.937	60.66	96.6825	10.5193	-10.444
3.970	61.01	96.6530	10.5161	-10.296
4.003	61.36	96.6239	10.5129	-10.148
4.037	61.70	96.5950	10.5098	-10.000
4.070	62.05	96.5663	10.5067	-9.856
4.103	62.40	96.5379	10.5036	-9.712
4.137	62.75	96.5098	10.5005	-9.567
4.170	63.09	96.4819	10.4975	-9.422
4.203	63.44	96.4543	10.4945	-9.277
4.237	63.78	96.4271	10.4915	-9.131
4.270	64.13	96.4001	10.4886	-8.985
4.303	64.47	96.3733	10.4857	-8.840
4.337	64.82	96.3469	10.4828	-8.698
4.370	65.16	96.3207	10.4799	-8.554
4.403	65.51	96.2948	10.4771	-8.409
4.437	65.85	96.2691	10.4743	-8.267
4.470	66.19	96.2437	10.4716	-8.125
4.503	66.54	96.2187	10.4688	-7.980
4.537	66.88	96.1939	10.4661	-7.837
4.570	67.22	96.1694	10.4635	-7.694
4.603	67.57	96.1452	10.4608	-7.553
4.637	67.91	96.1214	10.4582	-7.412
4.670	68.25	96.0978	10.4557	-7.269
4.703	68.60	96.0744	10.4531	-7.130
4.737	68.94	96.0514	10.4506	-6.990
4.770	69.28	96.0286	10.4481	-6.853
4.803	69.62	96.0061	10.4457	-6.717
4.837	69.96	95.9838	10.4433	-6.582
4.870	70.31	95.9618	10.4409	-6.443
4.903	70.65	95.9400	10.4385	-6.303
4.937	70.99	95.9185	10.4362	-6.166
4.970	71.33	95.8973	10.4339	-6.028
5.003	71.67	95.8764	10.4316	-5.891
5.037	72.02	95.8558	10.4293	-5.754
5.070	72.36	95.8355	10.4271	-5.619
5.103	72.70	95.8153	10.4249	-5.486
5.137	73.04	95.7955	10.4228	-5.354
5.170	73.39	95.7759	10.4206	-5.224
5.203	73.73	95.7566	10.4185	-5.088
5.237	74.07	95.7375	10.4165	-4.954
5.270	74.42	95.7188	10.4144	-4.822
5.303	74.76	95.7002	10.4124	-4.693
5.337	75.10	95.6819	10.4104	-4.564
5.370	75.44	95.6638	10.4085	-4.433
5.403	75.79	95.6460	10.4065	-4.303
5.437	76.13	95.6284	10.4046	-4.175
5.470	76.47	95.6111	10.4027	-4.047
5.503	76.82	95.5940	10.4009	-3.921
5.537	77.16	95.5771	10.3990	-3.794
5.570	77.51	95.5605	10.3972	-3.667
5.603	77.85	95.5442	10.3954	-3.541
5.637	78.20	95.5280	10.3937	-3.417
5.670	78.54	95.5121	10.3919	-3.292
5.703	78.89	95.4964	10.3902	-3.169
5.737	79.23	95.4808	10.3885	-3.046
5.770	79.57	95.4656	10.3869	-2.924
5.803	79.92	95.4505	10.3852	-2.802
5.837	80.27	95.4357	10.3836	-2.682
5.870	80.61	95.4210	10.3820	-2.559
5.903	80.96	95.4066	10.3805	-2.439
5.937	81.30	95.3924	10.3789	-2.320
5.970	81.65	95.3785	10.3774	-2.200
6.003	81.99	95.3647	10.3759	-2.082
6.037	82.34	95.3512	10.3744	-1.963
6.070	82.69	95.3378	10.3730	-1.845
6.103	83.03	95.3246	10.3716	-1.729
6.137	83.38	95.3117	10.3701	-1.615
6.170	83.73	95.2989	10.3688	-1.500
6.203	84.07	95.2863	10.3674	-1.385
6.237	84.42	95.2739	10.3660	-1.269
6.270	84.77	95.2617	10.3647	-1.151
6.303	85.12	95.2497	10.3634	-1.035
6.337	85.46	95.2379	10.3621	-0.922
6.370	85.81	95.2263	10.3609	-0.809
6.403	86.16	95.2149	10.3596	-0.697
6.437	86.50	95.2037	10.3584	-0.587
6.470	86.85	95.1926	10.3572	-0.476
6.503	87.20	95.1817	10.3560	-0.364
6.537	87.55	95.1709	10.3548	-0.254
6.570	87.90	95.1603	10.3537	-0.144
6.603	88.24	95.1500	10.3525	-0.037
6.637	88.59	95.1397	10.3514	0.069
6.670	88.94	95.1297	10.3503	0.176
6.703	89.29	95.1198	10.3493	0.285
6.737	89.63	95.1100	10.3482	0.392
6.770	89.98	95.1005	10.3472	0.498
6.803	90.33	95.0911	10.3461	0.603
[...]
219.153	949.68	-0.3638	-0.0396	34.550
219.270	949.67	-0.3641	-0.0396	34.540
219.387	949.67	-0.3646	-0.0397	34.542
219.503	949.67	-0.3650	-0.0397	34.538
219.620	949.67	-0.3653	-0.0397	34.540
219.737	949.67	-0.3657	-0.0398	34.542
219.853	949.67	-0.3660	-0.0398	34.543
219.970	949.67	-0.3664	-0.0399	34.545
220.087	949.67	-0.3666	-0.0399	34.549
220.203	949.67	-0.3670	-0.0399	34.551
220.320	949.67	-0.3673	-0.0400	34.552
220.437	949.67	-0.3676	-0.0400	34.558
220.553	949.67	-0.3678	-0.0400	34.564
220.670	949.67	-0.3681	-0.0401	34.564
220.787	949.67	-0.3685	-0.0401	34.573
220.903	949.67	-0.3689	-0.0401	34.573
221.020	949.67	-0.3692	-0.0402	34.564
221.137	949.67	-0.3696	-0.0402	34.569
221.253	949.67	-0.3700	-0.0403	34.565
221.370	949.67	-0.3703	-0.0403	34.570
221.487	949.67	-0.3707	-0.0403	34.590
221.603	949.67	-0.3709	-0.0404	34.594
221.720	949.67	-0.3714	-0.0404	34.587
221.837	949.67	-0.3719	-0.0405	34.585
221.953	949.67	-0.3724	-0.0405	34.602
222.070	949.67	-0.3728	-0.0406	34.613
222.187	949.67	-0.3732	-0.0406	34.630
222.303	949.67	-0.3736	-0.0407	34.631
222.420	949.67	-0.3740	-0.0407	34.634
222.537	949.67	-0.3744	-0.0407	34.640
222.653	949.67	-0.3746	-0.0408	34.644
222.770	949.67	-0.3748	-0.0408	34.645
222.887	949.67	-0.3751	-0.0408	34.652
223.003	949.67	-0.3755	-0.0409	34.655
223.120	949.67	-0.3758	-0.0409	34.655
223.237	949.67	-0.3763	-0.0409	34.664
223.353	949.67	-0.3767	-0.0410	34.669
223.470	949.67	-0.3772	-0.0410	34.683
223.587	949.67	-0.3774	-0.0411	34.690
223.703	949.67	-0.3777	-0.0411	34.695
223.820	949.67	-0.3781	-0.0411	34.694
223.937	949.67	-0.3783	-0.0412	34.699
224.053	949.67	-0.3785	-0.0412	34.718
224.170	949.67	-0.3788	-0.0412	34.728
224.287	949.67	-0.3790	-0.0412	34.724
224.403	949.67	-0.3793	-0.0413	34.725
224.520	949.67	-0.3797	-0.0413	34.727
224.637	949.67	-0.3801	-0.0414	34.734
224.753	949.67	-0.3804	-0.0414	34.740
224.870	949.67	-0.3809	-0.0414	34.751
224.987	949.67	-0.3813	-0.0415	34.759
225.103	949.67	-0.3818	-0.0415	34.777
225.220	949.67	-0.3822	-0.0416	34.783
225.337	949.67	-0.3826	-0.0416	34.781
225.453	949.67	-0.3830	-0.0417	34.792
225.570	949.67	-0.3833	-0.0417	34.801
225.687	949.67	-0.3837	-0.0417	34.803
225.803	949.67	-0.3841	-0.0418	34.809
225.920	949.67	-0.3844	-0.0418	34.824
226.037	949.67	-0.3848	-0.0419	34.847
226.153	949.67	-0.3850	-0.0419	34.853
226.270	949.67	-0.3852	-0.0419	34.854
226.387	949.67	-0.3856	-0.0420	34.855
226.503	949.67	-0.3859	-0.0420	34.858
226.620	949.67	-0.3862	-0.0420	34.859
226.737	949.67	-0.3866	-0.0421	34.876
226.853	949.67	-0.3869	-0.0421	34.879
226.970	949.67	-0.3872	-0.0421	34.877
227.087	949.67	-0.3876	-0.0422	34.875
227.203	949.67	-0.3879	-0.0422	34.877
227.320	949.67	-0.3882	-0.0422	34.885
227.437	949.67	-0.3888	-0.0423	34.895
227.553	949.67	-0.3893	-0.0424	34.899
227.670	949.67	-0.3897	-0.0424	34.899
227.787	949.67	-0.3901	-0.0424	34.913
227.903	949.67	-0.3905	-0.0425	34.915
228.020	949.67	-0.3908	-0.0425	34.914
228.137	949.67	-0.3911	-0.0426	34.916
228.253	949.67	-0.3915	-0.0426	34.925
228.370	949.67	-0.3918	-0.0426	34.935
228.487	949.67	-0.3923	-0.0427	34.949
228.603	949.67	-0.3927	-0.0427	34.954
228.720	949.67	-0.3931	-0.0428	34.958
228.837	949.67	-0.3934	-0.0428	34.964
228.953	949.67	-0.3938	-0.0428	34.973
229.070	949.67	-0.3943	-0.0429	34.977
229.187	949.67	-0.3948	-0.0430	34.980
229.303	949.67	-0.3950	-0.0430	34.986
229.420	949.67	-0.3953	-0.0430	34.992
229.537	949.67	-0.3956	-0.0430	35.005
229.653	949.67	-0.3959	-0.0431	35.029
229.770	949.67	-0.3962	-0.0431	35.046
229.887	949.67	-0.3966	-0.0432	35.048
230.003	949.67	-0.3970	-0.0432	35.054
230.120	949.67	-0.3973	-0.0432	35.057
230.237		-0.3975	-0.0432
230.245		-0.3975	-0.0432

File: SDb_3.txt
Time	Temperature	Weight	Weight	Heat Flow
min	°C	%	mg	mW
0.003		100.0625	4.1708
0.037		100.2292	4.1777
0.070	24.83	100.2697	4.1794	-23.976
0.103	25.17	100.2812	4.1799	-23.793
0.137	25.50	100.2847	4.1801	-23.620
0.170	25.83	100.2816	4.1799	-23.457
0.203	26.15	100.2726	4.1795	-23.301
0.237	26.46	100.2581	4.1789	-23.154
0.270	26.76	100.2386	4.1781	-23.013
0.303	27.06	100.2142	4.1771	-22.877
0.337	27.35	100.1849	4.1759	-22.747
0.370	27.63	100.1513	4.1745	-22.622
0.403	27.91	100.1138	4.1729	-22.499
0.437	28.18	100.0730	4.1712	-22.380
0.470	28.44	100.0292	4.1694	-22.265
0.503	28.70	99.9828	4.1675	-22.153
0.537	28.95	99.9342	4.1654	-22.044
0.570	29.19	99.8838	4.1633	-21.935
0.603	29.43	99.8320	4.1612	-21.827
0.637	29.66	99.7792	4.1590	-21.720
0.670	29.89	99.7256	4.1567	-21.615
0.703	30.11	99.6714	4.1545	-21.510
0.737	30.32	99.6168	4.1522	-21.408
0.770	30.53	99.5620	4.1499	-21.306
0.803	30.74	99.5070	4.1476	-21.204
0.837	30.95	99.4521	4.1453	-21.101
0.870	31.15	99.3975	4.1431	-21.001
0.903	31.34	99.3433	4.1408	-20.901
0.937	31.54	99.2895	4.1386	-20.802
0.970	31.74	99.2362	4.1363	-20.702
1.003	31.94	99.1835	4.1342	-20.603
1.037	32.14	99.1317	4.1320	-20.506
1.070	32.34	99.0809	4.1299	-20.410
1.103	32.54	99.0309	4.1278	-20.315
1.137	32.75	98.9818	4.1257	-20.220
1.170	32.96	98.9336	4.1237	-20.125
1.203	33.17	98.8864	4.1218	-20.027
1.237	33.39	98.8403	4.1198	-19.930
1.270	33.61	98.7951	4.1180	-19.832
1.303	33.84	98.7505	4.1161	-19.733
1.337	34.06	98.7067	4.1143	-19.631
1.370	34.30	98.6636	4.1125	-19.526
1.403	34.54	98.6212	4.1107	-19.420
1.437	34.78	98.5794	4.1090	-19.313
1.470	35.03	98.5381	4.1073	-19.201
1.503	35.28	98.4975	4.1056	-19.086
1.537	35.54	98.4574	4.1039	-18.967
1.570	35.80	98.4178	4.1022	-18.846
1.603	36.07	98.3786	4.1006	-18.722
1.637	36.34	98.3398	4.0990	-18.597
1.670	36.62	98.3013	4.0974	-18.470
1.703	36.90	98.2631	4.0958	-18.344
1.737	37.18	98.2252	4.0942	-18.213
1.770	37.48	98.1877	4.0926	-18.081
1.803	37.77	98.1504	4.0911	-17.947
1.837	38.07	98.1134	4.0895	-17.810
1.870	38.37	98.0766	4.0880	-17.672
1.903	38.68	98.0401	4.0865	-17.532
1.937	38.99	98.0039	4.0850	-17.391
1.970	39.31	97.9681	4.0835	-17.249
2.003	39.63	97.9324	4.0820	-17.103
2.037	39.96	97.8969	4.0805	-16.954
2.070	40.28	97.8616	4.0791	-16.808
2.103	40.61	97.8266	4.0776	-16.660
2.137	40.95	97.7918	4.0761	-16.508
2.170	41.28	97.7572	4.0747	-16.354
2.203	41.62	97.7228	4.0733	-16.201
2.237	41.97	97.6887	4.0718	-16.049
2.270	42.31	97.6548	4.0704	-15.894
2.303	42.66	97.6211	4.0690	-15.737
2.337	43.01	97.5875	4.0676	-15.577
2.370	43.36	97.5541	4.0662	-15.417
2.403	43.72	97.5210	4.0649	-15.257
2.437	44.08	97.4882	4.0635	-15.096
2.470	44.43	97.4556	4.0621	-14.935
2.503	44.79	97.4231	4.0608	-14.772
2.537	45.15	97.3910	4.0594	-14.607
2.570	45.52	97.3590	4.0581	-14.438
2.603	45.88	97.3273	4.0568	-14.270
2.637	46.25	97.2959	4.0555	-14.104
2.670	46.61	97.2646	4.0542	-13.939
2.703	46.98	97.2335	4.0529	-13.772
2.737	47.34	97.2027	4.0516	-13.603
2.770	47.71	97.1722	4.0503	-13.434
2.803	48.08	97.1420	4.0491	-13.267
2.837	48.45	97.1121	4.0478	-13.099
2.870	48.82	97.0823	4.0466	-12.928
2.903	49.19	97.0526	4.0453	-12.754
2.937	49.56	97.0232	4.0441	-12.582
2.970	49.93	96.9943	4.0429	-12.410
3.003	50.29	96.9658	4.0417	-12.238
3.037	50.66	96.9374	4.0405	-12.069
3.070	51.03	96.9093	4.0394	-11.898
3.103	51.40	96.8815	4.0382	-11.727
3.137	51.77	96.8539	4.0370	-11.556
3.170	52.14	96.8267	4.0359	-11.386
3.203	52.50	96.7999	4.0348	-11.212
3.237	52.87	96.7733	4.0337	-11.041
3.270	53.24	96.7472	4.0326	-10.872
3.303	53.60	96.7215	4.0315	-10.705
3.337	53.97	96.6960	4.0305	-10.536
3.370	54.33	96.6707	4.0294	-10.367
3.403	54.70	96.6458	4.0284	-10.199
3.437	55.06	96.6213	4.0274	-10.031
3.470	55.42	96.5972	4.0264	-9.863
3.503	55.79	96.5735	4.0254	-9.696
3.537	56.15	96.5502	4.0244	-9.530
3.570	56.51	96.5272	4.0234	-9.366
3.603	56.87	96.5046	4.0225	-9.203
3.637	57.23	96.4822	4.0216	-9.040
3.670	57.58	96.4602	4.0206	-8.876
3.703	57.94	96.4386	4.0197	-8.713
3.737	58.30	96.4174	4.0189	-8.550
3.770	58.65	96.3967	4.0180	-8.390
3.803	59.01	96.3764	4.0171	-8.230
3.837	59.36	96.3564	4.0163	-8.070
3.870	59.71	96.3367	4.0155	-7.911
3.903	60.07	96.3174	4.0147	-7.756
3.937	60.42	96.2984	4.0139	-7.601
3.970	60.77	96.2798	4.0131	-7.446
4.003	61.12	96.2615	4.0124	-7.291
4.037	61.47	96.2436	4.0116	-7.139
4.070	61.82	96.2259	4.0109	-6.986
4.103	62.17	96.2087	4.0102	-6.834
4.137	62.52	96.1917	4.0095	-6.686
4.170	62.86	96.1751	4.0088	-6.538
4.203	63.21	96.1587	4.0081	-6.392
4.237	63.56	96.1426	4.0074	-6.247
4.270	63.90	96.1270	4.0068	-6.101
4.303	64.25	96.1118	4.0061	-5.955
4.337	64.59	96.0969	4.0055	-5.809
4.370	64.94	96.0822	4.0049	-5.666
4.403	65.28	96.0676	4.0043	-5.526
4.437	65.62	96.0534	4.0037	-5.388
4.470	65.97	96.0395	4.0031	-5.250
4.503	66.31	96.0258	4.0025	-5.112
4.537	66.65	96.0124	4.0020	-4.977
4.570	67.00	95.9993	4.0014	-4.842
4.603	67.34	95.9865	4.0009	-4.706
4.637	67.68	95.9738	4.0004	-4.571
4.670	68.02	95.9614	3.9998	-4.438
4.703	68.36	95.9492	3.9993	-4.307
4.737	68.70	95.9374	3.9988	-4.176
4.770	69.04	95.9258	3.9984	-4.044
4.803	69.38	95.9144	3.9979	-3.914
4.837	69.72	95.9034	3.9974	-3.789
4.870	70.06	95.8926	3.9970	-3.663
4.903	70.40	95.8820	3.9965	-3.537
4.937	70.74	95.8716	3.9961	-3.412
4.970	71.08	95.8613	3.9957	-3.290
5.003	71.42	95.8513	3.9953	-3.168
5.037	71.76	95.8416	3.9949	-3.044
5.070	72.10	95.8320	3.9945	-2.922
5.103	72.44	95.8228	3.9941	-2.803
5.137	72.78	95.8137	3.9937	-2.687
5.170	73.12	95.8049	3.9933	-2.566
5.203	73.46	95.7962	3.9930	-2.447
5.237	73.80	95.7878	3.9926	-2.330
5.270	74.14	95.7797	3.9923	-2.213
5.303	74.48	95.7718	3.9919	-2.098
5.337	74.82	95.7641	3.9916	-1.982
5.370	75.16	95.7566	3.9913	-1.868
5.403	75.50	95.7493	3.9910	-1.754
5.437	75.84	95.7422	3.9907	-1.642
5.470	76.18	95.7352	3.9904	-1.530
5.503	76.52	95.7285	3.9901	-1.419
5.537	76.87	95.7219	3.9899	-1.307
5.570	77.21	95.7155	3.9896	-1.198
5.603	77.55	95.7093	3.9893	-1.090
5.637	77.89	95.7032	3.9891	-0.983
5.670	78.23	95.6972	3.9888	-0.877
5.703	78.57	95.6913	3.9886	-0.770
5.737	78.91	95.6856	3.9884	-0.664
5.770	79.25	95.6801	3.9881	-0.560
5.803	79.60	95.6748	3.9879	-0.456
5.837	79.94	95.6696	3.9877	-0.352
5.870	80.28	95.6646	3.9875	-0.248
5.903	80.62	95.6596	3.9873	-0.146
5.937	80.97	95.6548	3.9871	-0.044
5.970	81.31	95.6500	3.9869	0.057
6.003	81.65	95.6454	3.9867	0.159
6.037	82.00	95.6410	3.9865	0.261
6.070	82.34	95.6366	3.9863	0.361
6.103	82.68	95.6324	3.9861	0.459
6.137	83.03	95.6283	3.9860	0.555
6.170	83.37	95.6243	3.9858	0.652
6.203	83.71	95.6204	3.9856	0.751
6.237	84.06	95.6165	3.9855	0.847
6.270	84.40	95.6127	3.9853	0.942
6.303	84.75	95.6091	3.9852	1.036
6.337	85.09	95.6056	3.9850	1.130
6.370	85.43	95.6021	3.9849	1.225
6.403	85.78	95.5988	3.9847	1.320
6.437	86.12	95.5956	3.9846	1.413
6.470	86.47	95.5926	3.9845	1.506
6.503	86.81	95.5897	3.9844	1.596
6.537	87.16	95.5869	3.9842	1.688
6.570	87.50	95.5840	3.9841	1.780
6.603	87.85	95.5812	3.9840	1.870
6.637	88.19	95.5784	3.9839	1.958
6.670	88.54	95.5756	3.9838	2.046
6.703	88.88	95.5730	3.9837	2.137
6.737	89.23	95.5703	3.9835	2.226
6.770	89.57	95.5677	3.9834	2.312
6.803	89.92	95.5653	3.9833	2.399
6.837	90.26	95.5630	3.9832	2.486
6.870	90.61	95.5607	3.9831	2.574
6.903	90.95	95.5585	3.9831	2.663
6.937	91.30	95.5563	3.9830	2.747
6.970	91.64	95.5540	3.9829	2.829
7.003	91.99	95.5518	3.9828	2.912
7.037	92.34	95.5498	3.9827	2.999
[...]
219.387	950.35	1.0033	0.0418	63.687
219.495	950.35	1.0024	0.0418	63.666
219.603	950.35	1.0016	0.0417	63.661
219.712	950.35	1.0007	0.0417	63.659
219.820	950.35	0.9996	0.0417	63.651
219.928	950.35	0.9989	0.0416	63.640
220.037	950.35	0.9980	0.0416	63.635
220.145	950.35	0.9974	0.0416	63.637
220.253	950.35	0.9967	0.0415	63.636
220.362	950.35	0.9955	0.0415	63.632
220.470	950.35	0.9948	0.0415	63.623
220.578	950.35	0.9938	0.0414	63.625
220.687	950.35	0.9930	0.0414	63.623
220.795	950.35	0.9918	0.0413	63.617
220.903	950.35	0.9907	0.0413	63.614
221.012	950.35	0.9898	0.0413	63.608
221.120	950.35	0.9889	0.0412	63.611
221.228	950.35	0.9881	0.0412	63.612
221.337	950.35	0.9873	0.0412	63.604
221.445	950.35	0.9863	0.0411	63.592
221.553	950.35	0.9855	0.0411	63.588
221.662	950.34	0.9842	0.0410	63.591
221.770	950.35	0.9833	0.0410	63.592
221.878	950.34	0.9824	0.0409	63.594
221.987	950.34	0.9818	0.0409	63.593
222.095	950.34	0.9808	0.0409	63.597
222.203	950.34	0.9798	0.0408	63.593
222.312	950.34	0.9785	0.0408	63.587
222.420	950.34	0.9778	0.0408	63.582
222.528	950.34	0.9770	0.0407	63.584
222.637	950.34	0.9763	0.0407	63.587
222.745	950.34	0.9753	0.0407	63.589
222.853	950.34	0.9744	0.0406	63.586
222.962	950.34	0.9731	0.0406	63.583
223.070	950.34	0.9718	0.0405	63.577
223.178	950.34	0.9709	0.0405	63.576
223.287	950.34	0.9703	0.0404	63.572
223.395	950.34	0.9694	0.0404	63.559
223.503	950.34	0.9682	0.0404	63.552
223.612	950.34	0.9674	0.0403	63.544
223.720	950.34	0.9666	0.0403	63.545
223.828	950.34	0.9661	0.0403	63.548
223.937	950.34	0.9656	0.0402	63.544
224.045	950.34	0.9647	0.0402	63.540
224.153	950.34	0.9643	0.0402	63.542
224.262	950.34	0.9635	0.0402	63.535
224.370	950.34	0.9621	0.0401	63.538
224.478	950.34	0.9613	0.0401	63.535
224.587	950.34	0.9601	0.0400	63.529
224.695	950.34	0.9594	0.0400	63.524
224.803	950.34	0.9585	0.0400	63.514
224.912	950.34	0.9577	0.0399	63.512
225.020	950.34	0.9565	0.0399	63.517
225.128	950.34	0.9556	0.0398	63.519
225.237	950.34	0.9548	0.0398	63.517
225.345	950.34	0.9543	0.0398	63.521
225.453	950.34	0.9535	0.0397	63.518
225.562	950.34	0.9531	0.0397	63.523
225.670	950.34	0.9521	0.0397	63.524
225.778	950.34	0.9509	0.0396	63.525
225.887	950.34	0.9504	0.0396	63.518
225.995	950.34	0.9495	0.0396	63.514
226.103	950.34	0.9486	0.0395	63.512
226.212	950.34	0.9473	0.0395	63.514
226.320	950.34	0.9462	0.0394	63.509
226.428	950.34	0.9453	0.0394	63.500
226.537	950.34	0.9445	0.0394	63.500
226.645	950.34	0.9441	0.0394	63.503
226.753	950.34	0.9428	0.0393	63.500
226.862	950.34	0.9416	0.0392	63.496
226.970	950.34	0.9404	0.0392	63.501
227.078	950.34	0.9393	0.0391	63.497
227.187	950.34	0.9385	0.0391	63.491
227.295	950.34	0.9379	0.0391	63.476
227.403	950.34	0.9370	0.0391	63.474
227.512	950.34	0.9358	0.0390	63.478
227.620	950.34	0.9345	0.0390	63.475
227.728	950.34	0.9336	0.0389	63.477
227.837	950.33	0.9329	0.0389	63.486
227.945	950.33	0.9319	0.0388	63.490
228.053	950.34	0.9309	0.0388	63.494
228.162	950.33	0.9296	0.0387	63.481
228.270	950.33	0.9279	0.0387	63.473
228.378	950.34	0.9268	0.0386	63.477
228.487	950.34	0.9258	0.0386	63.485
228.595	950.34	0.9249	0.0385	63.491
228.703	950.34	0.9242	0.0385	63.488
228.812	950.34	0.9230	0.0385	63.492
228.920	950.34	0.9222	0.0384	63.495
229.028	950.34	0.9211	0.0384	63.496
229.137	950.34	0.9203	0.0384	63.496
229.245	950.34	0.9191	0.0383	63.509
229.353	950.34	0.9180	0.0383	63.517
229.462	950.34	0.9168	0.0382	63.516
229.570	950.34	0.9154	0.0382	63.516
229.678	950.34	0.9138	0.0381	63.518
229.787	950.34	0.9129	0.0381	63.524
229.895	950.34	0.9117	0.0380	63.530
230.003	950.34	0.9102	0.0379	63.541
230.112	950.34	0.9094	0.0379	63.547
230.220	950.34	0.9080	0.0378	63.554
230.312		0.9069	0.0378