Folder: tga_data_analysis/_test

Note: README.md
# PyTGA - Thermogravimetric Analysis in Python

## Overview
PyTGA is a Python module designed for conducting and analyzing Thermogravimetric Analysis (TGA) experiments. It offers tools for loading, processing, and analyzing TGA data, focusing on proximate and oxidation analysis, solid distillation analysis, and deconvolution analysis.

## Features
- **Data Loading**: Supports loading TGA data from files.
- **Proximate Analysis**: Calculates moisture, ash, and volatile matter.
- **Oxidation Analysis**: Computes Ti, Tp, Tb, etc.
- **Solid Distillation Analysis**: Analyzes solid distillation over time.
- **Deconvolution Analysis**: Deconvolutes TGA curves for peak analysis.
- **Plotting and Visualization**: Functions for TGA data visualization.

File: MIS_1.txt
Time	Temperature	Weight	Weight	Heat Flow
min	°C	%	mg	mW
0.003		100.0367	5.8126
0.037		100.2542	5.8253
0.070	25.99	100.3416	5.8304	-22.686
0.103	26.30	100.3476	5.8307	-22.583
0.137	26.60	100.3450	5.8306	-22.491
0.170	26.89	100.3393	5.8302	-22.406
0.203	27.18	100.3308	5.8297	-22.329
0.237	27.46	100.3196	5.8291	-22.259
0.270	27.73	100.3058	5.8283	-22.190
0.303	28.00	100.2894	5.8273	-22.124
0.337	28.27	100.2705	5.8262	-22.063
0.370	28.52	100.2492	5.8250	-22.006
0.403	28.77	100.2257	5.8236	-21.949
0.437	29.02	100.2002	5.8221	-21.892
0.470	29.26	100.1730	5.8206	-21.836
0.503	29.49	100.1445	5.8189	-21.783
0.537	29.72	100.1146	5.8172	-21.729
0.570	29.94	100.0838	5.8154	-21.676
0.603	30.16	100.0520	5.8135	-21.621
0.637	30.37	100.0193	5.8116	-21.565
0.670	30.58	99.9860	5.8097	-21.508
0.703	30.78	99.9522	5.8077	-21.451
0.737	30.98	99.9181	5.8057	-21.395
0.770	31.18	99.8836	5.8037	-21.339
0.803	31.37	99.8490	5.8017	-21.281
0.837	31.57	99.8143	5.7997	-21.221
0.870	31.76	99.7795	5.7977	-21.161
0.903	31.95	99.7448	5.7957	-21.105
0.937	32.14	99.7101	5.7937	-21.049
0.970	32.33	99.6756	5.7917	-20.993
1.003	32.53	99.6415	5.7897	-20.937
1.037	32.73	99.6078	5.7877	-20.882
1.070	32.93	99.5743	5.7858	-20.827
1.103	33.14	99.5410	5.7838	-20.767
1.137	33.35	99.5082	5.7819	-20.709
1.170	33.56	99.4756	5.7800	-20.652
1.203	33.78	99.4432	5.7782	-20.594
1.237	34.00	99.4110	5.7763	-20.536
1.270	34.22	99.3789	5.7744	-20.476
1.303	34.45	99.3470	5.7726	-20.414
1.337	34.69	99.3152	5.7707	-20.349
1.370	34.92	99.2836	5.7689	-20.282
1.403	35.17	99.2521	5.7671	-20.210
1.437	35.41	99.2205	5.7652	-20.138
1.470	35.67	99.1890	5.7634	-20.067
1.503	35.93	99.1575	5.7616	-19.994
1.537	36.19	99.1260	5.7597	-19.918
1.570	36.45	99.0946	5.7579	-19.840
1.603	36.73	99.0632	5.7561	-19.761
1.637	37.00	99.0318	5.7543	-19.678
1.670	37.28	99.0003	5.7524	-19.597
1.703	37.57	98.9688	5.7506	-19.513
1.737	37.86	98.9370	5.7487	-19.429
1.770	38.15	98.9052	5.7469	-19.342
1.803	38.45	98.8733	5.7450	-19.254
1.837	38.75	98.8413	5.7432	-19.165
1.870	39.06	98.8092	5.7413	-19.074
1.903	39.37	98.7771	5.7395	-18.983
1.937	39.68	98.7450	5.7376	-18.892
1.970	40.00	98.7127	5.7357	-18.796
2.003	40.32	98.6803	5.7338	-18.697
2.037	40.65	98.6479	5.7319	-18.599
2.070	40.97	98.6154	5.7301	-18.500
2.103	41.31	98.5827	5.7282	-18.400
2.137	41.64	98.5499	5.7263	-18.299
2.170	41.98	98.5170	5.7243	-18.197
2.203	42.31	98.4840	5.7224	-18.094
2.237	42.66	98.4508	5.7205	-17.989
2.270	43.00	98.4175	5.7186	-17.882
2.303	43.34	98.3840	5.7166	-17.774
2.337	43.69	98.3503	5.7147	-17.666
2.370	44.04	98.3164	5.7127	-17.555
2.403	44.39	98.2823	5.7107	-17.443
2.437	44.75	98.2479	5.7087	-17.329
2.470	45.10	98.2134	5.7067	-17.214
2.503	45.46	98.1788	5.7047	-17.099
2.537	45.81	98.1439	5.7027	-16.982
2.570	46.17	98.1089	5.7006	-16.865
2.603	46.53	98.0738	5.6986	-16.745
2.637	46.89	98.0385	5.6965	-16.626
2.670	47.25	98.0029	5.6945	-16.505
2.703	47.61	97.9672	5.6924	-16.383
2.737	47.97	97.9314	5.6903	-16.261
2.770	48.34	97.8954	5.6882	-16.136
2.803	48.70	97.8592	5.6861	-16.008
2.837	49.06	97.8228	5.6840	-15.881
2.870	49.42	97.7862	5.6819	-15.756
2.903	49.79	97.7495	5.6797	-15.629
2.937	50.15	97.7126	5.6776	-15.502
2.970	50.51	97.6756	5.6755	-15.374
3.003	50.87	97.6384	5.6733	-15.246
3.037	51.24	97.6012	5.6711	-15.114
3.070	51.60	97.5639	5.6690	-14.982
3.103	51.96	97.5265	5.6668	-14.851
3.137	52.32	97.4891	5.6646	-14.718
3.170	52.69	97.4515	5.6624	-14.584
3.203	53.05	97.4138	5.6602	-14.449
3.237	53.41	97.3760	5.6580	-14.313
3.270	53.77	97.3381	5.6558	-14.177
3.303	54.13	97.3003	5.6536	-14.045
3.337	54.49	97.2625	5.6514	-13.912
3.370	54.84	97.2246	5.6492	-13.777
3.403	55.20	97.1867	5.6470	-13.639
3.437	55.56	97.1488	5.6448	-13.502
3.470	55.92	97.1108	5.6426	-13.366
3.503	56.27	97.0729	5.6404	-13.227
3.537	56.63	97.0352	5.6382	-13.090
3.570	56.99	96.9975	5.6360	-12.953
3.603	57.34	96.9598	5.6339	-12.817
3.637	57.69	96.9223	5.6317	-12.680
3.670	58.05	96.8849	5.6295	-12.543
3.703	58.40	96.8475	5.6273	-12.405
3.737	58.75	96.8102	5.6252	-12.268
3.770	59.10	96.7731	5.6230	-12.131
3.803	59.45	96.7361	5.6209	-11.993
3.837	59.80	96.6992	5.6187	-11.855
3.870	60.15	96.6625	5.6166	-11.717
3.903	60.50	96.6259	5.6145	-11.580
3.937	60.85	96.5895	5.6123	-11.444
3.970	61.20	96.5533	5.6102	-11.307
4.003	61.55	96.5172	5.6081	-11.169
4.037	61.89	96.4814	5.6061	-11.029
4.070	62.24	96.4459	5.6040	-10.892
4.103	62.59	96.4106	5.6019	-10.756
4.137	62.93	96.3756	5.5999	-10.619
4.170	63.28	96.3408	5.5979	-10.483
4.203	63.62	96.3062	5.5959	-10.347
4.237	63.97	96.2718	5.5939	-10.213
4.270	64.31	96.2377	5.5919	-10.078
4.303	64.66	96.2040	5.5899	-9.943
4.337	65.00	96.1705	5.5880	-9.808
4.370	65.34	96.1372	5.5861	-9.672
4.403	65.68	96.1042	5.5841	-9.539
4.437	66.03	96.0716	5.5822	-9.405
4.470	66.37	96.0393	5.5804	-9.268
4.503	66.71	96.0072	5.5785	-9.137
4.537	67.05	95.9755	5.5767	-9.005
4.570	67.40	95.9440	5.5748	-8.875
4.603	67.74	95.9129	5.5730	-8.741
4.637	68.08	95.8820	5.5712	-8.612
4.670	68.42	95.8516	5.5695	-8.481
4.703	68.76	95.8215	5.5677	-8.348
4.737	69.11	95.7916	5.5660	-8.215
4.770	69.45	95.7620	5.5643	-8.083
4.803	69.79	95.7328	5.5626	-7.951
4.837	70.13	95.7039	5.5609	-7.820
4.870	70.47	95.6755	5.5592	-7.692
4.903	70.81	95.6475	5.5576	-7.564
4.937	71.15	95.6197	5.5560	-7.434
4.970	71.49	95.5922	5.5544	-7.305
5.003	71.83	95.5650	5.5528	-7.178
5.037	72.18	95.5382	5.5513	-7.050
5.070	72.52	95.5117	5.5497	-6.923
5.103	72.86	95.4857	5.5482	-6.798
5.137	73.20	95.4599	5.5467	-6.674
5.170	73.54	95.4345	5.5452	-6.549
5.203	73.88	95.4094	5.5438	-6.424
5.237	74.23	95.3847	5.5423	-6.299
5.270	74.57	95.3604	5.5409	-6.176
5.303	74.91	95.3365	5.5395	-6.055
5.337	75.25	95.3129	5.5382	-5.932
5.370	75.60	95.2896	5.5368	-5.809
5.403	75.94	95.2666	5.5355	-5.685
5.437	76.28	95.2439	5.5342	-5.563
5.470	76.62	95.2216	5.5329	-5.442
5.503	76.97	95.1996	5.5316	-5.321
5.537	77.31	95.1778	5.5303	-5.202
5.570	77.65	95.1564	5.5291	-5.085
5.603	78.00	95.1353	5.5278	-4.969
5.637	78.34	95.1145	5.5266	-4.852
5.670	78.68	95.0940	5.5254	-4.733
5.703	79.03	95.0740	5.5243	-4.614
5.737	79.37	95.0542	5.5231	-4.494
5.770	79.72	95.0348	5.5220	-4.375
5.803	80.06	95.0156	5.5209	-4.257
5.837	80.41	94.9967	5.5198	-4.142
5.870	80.75	94.9782	5.5187	-4.024
5.903	81.10	94.9600	5.5177	-3.909
5.937	81.44	94.9421	5.5166	-3.796
5.970	81.79	94.9245	5.5156	-3.682
6.003	82.13	94.9072	5.5146	-3.568
6.037	82.48	94.8902	5.5136	-3.455
6.070	82.83	94.8735	5.5126	-3.343
6.103	83.17	94.8571	5.5117	-3.232
6.137	83.52	94.8410	5.5107	-3.120
6.170	83.86	94.8252	5.5098	-3.007
6.203	84.21	94.8097	5.5089	-2.896
6.237	84.56	94.7945	5.5080	-2.784
6.270	84.90	94.7795	5.5072	-2.674
6.303	85.25	94.7647	5.5063	-2.564
6.337	85.60	94.7502	5.5055	-2.457
6.370	85.94	94.7360	5.5046	-2.349
6.403	86.29	94.7221	5.5038	-2.241
6.437	86.64	94.7084	5.5030	-2.132
6.470	86.99	94.6949	5.5023	-2.027
6.503	87.33	94.6818	5.5015	-1.920
6.537	87.68	94.6689	5.5007	-1.812
6.570	88.03	94.6561	5.5000	-1.706
6.603	88.38	94.6437	5.4993	-1.602
6.637	88.72	94.6315	5.4986	-1.496
6.670	89.07	94.6196	5.4979	-1.389
6.703	89.42	94.6080	5.4972	-1.284
6.737	89.77	94.5966	5.4965	-1.180
6.770	90.12	94.5854	5.4959	-1.077
6.803	90.46	94.5743	5.4953	-0.978
6.837	90.81	94.5637	5.4946	-0.879
6.870	91.16	94.5532	5.4940	-0.776
6.903	91.51	94.5430	5.4934	-0.673
6.937	91.85	94.5328	5.4928	-0.572
6.970	92.20	94.5230	5.4923	-0.470
[...]
171.220	949.17	-0.4833	-0.0281	13.394
171.337	949.17	-0.4835	-0.0281	13.416
171.453	949.17	-0.4841	-0.0281	13.435
171.570	949.17	-0.4846	-0.0282	13.450
171.687	949.17	-0.4851	-0.0282	13.467
171.803	949.17	-0.4854	-0.0282	13.492
171.920	949.17	-0.4856	-0.0282	13.515
172.037	949.17	-0.4862	-0.0283	13.546
172.153	949.17	-0.4865	-0.0283	13.572
172.270	949.17	-0.4869	-0.0283	13.594
172.387	949.17	-0.4874	-0.0283	13.620
172.503	949.17	-0.4876	-0.0283	13.635
172.620	949.18	-0.4881	-0.0284	13.651
172.737	949.18	-0.4887	-0.0284	13.669
172.853	949.18	-0.4893	-0.0284	13.690
172.970	949.18	-0.4896	-0.0284	13.718
173.087	949.18	-0.4903	-0.0285	13.739
173.203	949.18	-0.4909	-0.0285	13.759
173.320	949.18	-0.4912	-0.0285	13.775
173.437	949.18	-0.4916	-0.0286	13.798
173.553	949.18	-0.4921	-0.0286	13.815
173.670	949.18	-0.4927	-0.0286	13.828
173.787	949.18	-0.4928	-0.0286	13.832
173.903	949.18	-0.4931	-0.0286	13.866
174.020	949.18	-0.4936	-0.0287	13.892
174.137	949.18	-0.4940	-0.0287	13.911
174.253	949.18	-0.4944	-0.0287	13.931
174.370	949.18	-0.4951	-0.0288	13.958
174.487	949.18	-0.4951	-0.0288	14.001
174.603	949.18	-0.4955	-0.0288	14.039
174.720	949.18	-0.4960	-0.0288	14.077
174.837	949.19	-0.4966	-0.0289	14.107
174.953	949.19	-0.4968	-0.0289	14.123
175.070	949.19	-0.4972	-0.0289	14.154
175.187	949.19	-0.4976	-0.0289	14.186
175.303	949.19	-0.4980	-0.0289	14.210
175.420	949.19	-0.4981	-0.0289	14.218
175.537	949.19	-0.4987	-0.0290	14.236
175.653	949.19	-0.4989	-0.0290	14.261
175.770	949.19	-0.4991	-0.0290	14.283
175.887	949.19	-0.4998	-0.0290	14.315
176.003	949.19	-0.5002	-0.0291	14.345
176.120	949.19	-0.5005	-0.0291	14.372
176.237	949.19	-0.5008	-0.0291	14.391
176.353	949.19	-0.5013	-0.0291	14.421
176.470	949.19	-0.5018	-0.0292	14.451
176.587	949.19	-0.5024	-0.0292	14.486
176.703	949.19	-0.5031	-0.0292	14.513
176.820	949.19	-0.5033	-0.0292	14.525
176.937	949.20	-0.5039	-0.0293	14.546
177.053	949.20	-0.5043	-0.0293	14.567
177.170	949.20	-0.5046	-0.0293	14.576
177.287	949.20	-0.5050	-0.0293	14.580
177.403	949.20	-0.5052	-0.0294	14.578
177.520	949.20	-0.5051	-0.0294	14.581
177.637	949.20	-0.5053	-0.0294	14.594
177.753	949.20	-0.5057	-0.0294	14.612
177.870	949.20	-0.5063	-0.0294	14.650
177.987	949.20	-0.5067	-0.0294	14.699
178.103	949.20	-0.5069	-0.0295	14.725
178.220	949.20	-0.5069	-0.0295	14.742
178.337	949.20	-0.5072	-0.0295	14.752
178.453	949.20	-0.5074	-0.0295	14.774
178.570	949.20	-0.5077	-0.0295	14.802
178.687	949.20	-0.5079	-0.0295	14.826
178.803	949.20	-0.5086	-0.0296	14.847
178.920	949.20	-0.5090	-0.0296	14.863
179.037	949.20	-0.5095	-0.0296	14.883
179.153	949.20	-0.5100	-0.0296	14.905
179.270	949.20	-0.5104	-0.0297	14.920
179.387	949.20	-0.5109	-0.0297	14.912
179.503	949.20	-0.5114	-0.0297	14.915
179.620	949.20	-0.5119	-0.0297	14.928
179.737	949.20	-0.5123	-0.0298	14.956
179.853	949.20	-0.5126	-0.0298	14.977
179.970	949.21	-0.5125	-0.0298	14.997
180.087	949.21	-0.5128	-0.0298	15.006
180.203	949.21	-0.5128	-0.0298	15.020
180.320	949.21	-0.5132	-0.0298	15.039
180.437	949.21	-0.5136	-0.0298	15.040
180.553	949.21	-0.5141	-0.0299	15.040
180.670	949.21	-0.5145	-0.0299	15.070
180.787	949.21	-0.5151	-0.0299	15.100
180.903	949.21	-0.5155	-0.0300	15.119
181.020	949.21	-0.5160	-0.0300	15.142
181.137	949.21	-0.5163	-0.0300	15.164
181.253	949.21	-0.5163	-0.0300	15.179
181.370	949.21	-0.5164	-0.0300	15.186
181.487	949.21	-0.5165	-0.0300	15.186
181.603	949.21	-0.5167	-0.0300	15.192
181.720	949.21	-0.5170	-0.0300	15.207
181.837	949.21	-0.5173	-0.0301	15.234
181.953	949.21	-0.5177	-0.0301	15.254
182.070	949.21	-0.5183	-0.0301	15.282
182.187	949.21	-0.5188	-0.0301	15.310
182.303		-0.5191	-0.0302
182.312		-0.5192	-0.0302

File: SDa_1.txt
Time	Temperature	Weight	Weight	Heat Flow
min	°C	%	mg	mW
0.003		100.0011	18.3336
0.037		100.0168	18.3365
0.070	21.25	100.0285	18.3386	-17.152
0.103	21.24	100.0284	18.3386	-17.204
0.137	21.23	100.0228	18.3376	-17.259
0.170	21.22	100.0161	18.3363	-17.318
0.203	21.21	100.0083	18.3349	-17.380
0.237	21.21	99.9995	18.3333	-17.452
0.270	21.21	99.9895	18.3315	-17.530
0.303	21.22	99.9782	18.3294	-17.613
0.337	21.24	99.9657	18.3271	-17.703
0.370	21.26	99.9520	18.3246	-17.801
0.403	21.30	99.9373	18.3219	-17.905
0.437	21.34	99.9220	18.3191	-18.013
0.470	21.40	99.9060	18.3162	-18.127
0.503	21.47	99.8896	18.3131	-18.246
0.537	21.55	99.8727	18.3100	-18.371
0.570	21.64	99.8555	18.3069	-18.501
0.603	21.74	99.8383	18.3037	-18.633
0.637	21.85	99.8212	18.3006	-18.766
0.670	21.98	99.8043	18.2975	-18.898
0.703	22.12	99.7879	18.2945	-19.032
0.737	22.27	99.7719	18.2916	-19.163
0.770	22.44	99.7564	18.2887	-19.292
0.803	22.62	99.7414	18.2860	-19.414
0.837	22.81	99.7269	18.2833	-19.529
0.870	23.01	99.7126	18.2807	-19.639
0.903	23.23	99.6986	18.2781	-19.745
0.937	23.46	99.6847	18.2756	-19.840
0.970	23.70	99.6708	18.2730	-19.925
1.003	23.95	99.6569	18.2705	-20.001
1.037	24.22	99.6429	18.2679	-20.072
1.070	24.49	99.6287	18.2653	-20.137
1.103	24.77	99.6143	18.2627	-20.196
1.137	25.06	99.5996	18.2600	-20.247
1.170	25.36	99.5848	18.2573	-20.289
1.203	25.67	99.5696	18.2545	-20.325
1.237	25.99	99.5543	18.2517	-20.355
1.270	26.32	99.5386	18.2488	-20.379
1.303	26.65	99.5227	18.2459	-20.398
1.337	26.99	99.5065	18.2429	-20.412
1.370	27.33	99.4900	18.2399	-20.423
1.403	27.69	99.4733	18.2368	-20.431
1.437	28.04	99.4562	18.2337	-20.435
1.470	28.40	99.4388	18.2305	-20.437
1.503	28.77	99.4211	18.2272	-20.436
1.537	29.14	99.4031	18.2240	-20.428
1.570	29.51	99.3848	18.2206	-20.412
1.603	29.89	99.3662	18.2172	-20.388
1.637	30.27	99.3472	18.2137	-20.358
1.670	30.65	99.3278	18.2101	-20.323
1.703	31.04	99.3078	18.2065	-20.283
1.737	31.43	99.2871	18.2027	-20.243
1.770	31.82	99.2656	18.1988	-20.198
1.803	32.21	99.2434	18.1947	-20.152
1.837	32.60	99.2203	18.1904	-20.104
1.870	32.99	99.1963	18.1860	-20.053
1.903	33.39	99.1715	18.1815	-20.000
1.937	33.78	99.1461	18.1768	-19.944
1.970	34.18	99.1199	18.1720	-19.885
2.003	34.57	99.0931	18.1671	-19.824
2.037	34.96	99.0656	18.1621	-19.762
2.070	35.36	99.0375	18.1569	-19.698
2.103	35.75	99.0087	18.1516	-19.629
2.137	36.14	98.9793	18.1463	-19.560
2.170	36.53	98.9496	18.1408	-19.491
2.203	36.92	98.9194	18.1353	-19.421
2.237	37.31	98.8887	18.1296	-19.349
2.270	37.70	98.8577	18.1240	-19.276
2.303	38.08	98.8265	18.1182	-19.202
2.337	38.47	98.7946	18.1124	-19.126
2.370	38.85	98.7623	18.1065	-19.052
2.403	39.23	98.7296	18.1005	-18.980
2.437	39.61	98.6970	18.0945	-18.904
2.470	39.99	98.6640	18.0885	-18.827
2.503	40.37	98.6306	18.0823	-18.747
2.537	40.74	98.5969	18.0761	-18.668
2.570	41.11	98.5627	18.0699	-18.588
2.603	41.48	98.5280	18.0635	-18.509
2.637	41.85	98.4933	18.0572	-18.432
2.670	42.22	98.4582	18.0507	-18.354
2.703	42.58	98.4226	18.0442	-18.274
2.737	42.94	98.3870	18.0377	-18.193
2.770	43.30	98.3511	18.0311	-18.112
2.803	43.66	98.3151	18.0245	-18.033
2.837	44.02	98.2789	18.0179	-17.954
2.870	44.37	98.2424	18.0112	-17.873
2.903	44.73	98.2058	18.0045	-17.793
2.937	45.08	98.1691	17.9977	-17.717
2.970	45.43	98.1321	17.9909	-17.637
3.003	45.78	98.0948	17.9841	-17.556
3.037	46.12	98.0573	17.9772	-17.477
3.070	46.47	98.0197	17.9703	-17.398
3.103	46.81	97.9819	17.9634	-17.319
3.137	47.16	97.9445	17.9565	-17.240
3.170	47.50	97.9066	17.9496	-17.162
3.203	47.84	97.8687	17.9426	-17.081
3.237	48.18	97.8306	17.9357	-16.998
3.270	48.52	97.7922	17.9286	-16.914
3.303	48.86	97.7538	17.9216	-16.829
3.337	49.19	97.7156	17.9146	-16.747
3.370	49.53	97.6773	17.9076	-16.663
3.403	49.86	97.6390	17.9005	-16.582
3.437	50.20	97.6007	17.8935	-16.500
3.470	50.53	97.5623	17.8865	-16.417
3.503	50.86	97.5237	17.8794	-16.332
3.537	51.20	97.4852	17.8723	-16.246
3.570	51.53	97.4468	17.8653	-16.163
3.603	51.86	97.4085	17.8583	-16.078
3.637	52.19	97.3704	17.8513	-15.991
3.670	52.52	97.3325	17.8443	-15.903
3.703	52.85	97.2944	17.8374	-15.815
3.737	53.19	97.2564	17.8304	-15.725
3.770	53.52	97.2183	17.8234	-15.635
3.803	53.85	97.1806	17.8165	-15.546
3.837	54.18	97.1431	17.8096	-15.456
3.870	54.51	97.1055	17.8027	-15.365
3.903	54.84	97.0680	17.7959	-15.273
3.937	55.17	97.0306	17.7890	-15.178
3.970	55.50	96.9936	17.7822	-15.083
4.003	55.83	96.9566	17.7754	-14.988
4.037	56.16	96.9198	17.7687	-14.893
4.070	56.49	96.8832	17.7620	-14.794
4.103	56.83	96.8469	17.7553	-14.693
4.137	57.16	96.8108	17.7487	-14.594
4.170	57.49	96.7747	17.7421	-14.495
4.203	57.82	96.7387	17.7355	-14.396
4.237	58.16	96.7029	17.7289	-14.294
4.270	58.49	96.6675	17.7224	-14.191
4.303	58.83	96.6326	17.7160	-14.088
4.337	59.16	96.5977	17.7096	-13.982
4.370	59.50	96.5630	17.7033	-13.875
4.403	59.83	96.5284	17.6969	-13.769
4.437	60.17	96.4941	17.6906	-13.662
4.470	60.50	96.4602	17.6844	-13.554
4.503	60.84	96.4266	17.6783	-13.445
4.537	61.18	96.3932	17.6721	-13.330
4.570	61.52	96.3601	17.6661	-13.214
4.603	61.85	96.3272	17.6600	-13.100
4.637	62.19	96.2944	17.6540	-12.987
4.670	62.53	96.2621	17.6481	-12.872
4.703	62.87	96.2301	17.6422	-12.755
4.737	63.21	96.1983	17.6364	-12.638
4.770	63.55	96.1667	17.6306	-12.519
4.803	63.89	96.1353	17.6249	-12.399
4.837	64.24	96.1043	17.6192	-12.278
4.870	64.58	96.0738	17.6136	-12.158
4.903	64.92	96.0436	17.6081	-12.035
4.937	65.26	96.0137	17.6026	-11.912
4.970	65.61	95.9841	17.5971	-11.789
5.003	65.95	95.9546	17.5917	-11.665
5.037	66.29	95.9255	17.5864	-11.539
5.070	66.64	95.8966	17.5811	-11.411
5.103	66.98	95.8682	17.5759	-11.283
5.137	67.33	95.8400	17.5707	-11.155
5.170	67.68	95.8120	17.5656	-11.027
5.203	68.02	95.7843	17.5605	-10.898
5.237	68.37	95.7570	17.5555	-10.768
5.270	68.72	95.7302	17.5506	-10.636
5.303	69.06	95.7036	17.5457	-10.506
5.337	69.41	95.6770	17.5408	-10.375
5.370	69.76	95.6505	17.5360	-10.243
5.403	70.11	95.6246	17.5312	-10.108
5.437	70.45	95.5991	17.5266	-9.974
5.470	70.80	95.5740	17.5220	-9.838
5.503	71.15	95.5491	17.5174	-9.703
5.537	71.50	95.5244	17.5129	-9.569
5.570	71.85	95.4999	17.5084	-9.432
5.603	72.20	95.4757	17.5039	-9.296
5.637	72.55	95.4520	17.4996	-9.162
5.670	72.90	95.4288	17.4953	-9.025
5.703	73.25	95.4057	17.4911	-8.885
5.737	73.60	95.3831	17.4870	-8.746
5.770	73.95	95.3608	17.4829	-8.610
5.803	74.29	95.3387	17.4788	-8.472
5.837	74.64	95.3169	17.4748	-8.335
5.870	75.00	95.2954	17.4709	-8.196
5.903	75.35	95.2740	17.4670	-8.059
5.937	75.70	95.2528	17.4631	-7.923
5.970	76.05	95.2319	17.4592	-7.783
6.003	76.40	95.2113	17.4555	-7.644
6.037	76.75	95.1907	17.4517	-7.505
6.070	77.10	95.1701	17.4479	-7.366
6.103	77.45	95.1495	17.4441	-7.228
6.137	77.80	95.1290	17.4404	-7.090
6.170	78.15	95.1086	17.4366	-6.952
6.203	78.50	95.0882	17.4329	-6.812
6.237	78.85	95.0678	17.4292	-6.674
6.270	79.20	95.0476	17.4254	-6.536
6.303	79.55	95.0275	17.4218	-6.398
6.337	79.90	95.0076	17.4181	-6.262
6.370	80.25	94.9878	17.4145	-6.125
6.403	80.60	94.9682	17.4109	-5.988
6.437	80.95	94.9487	17.4073	-5.851
6.470	81.30	94.9295	17.4038	-5.715
6.503	81.65	94.9104	17.4003	-5.577
6.537	82.00	94.8915	17.3968	-5.440
6.570	82.35	94.8728	17.3934	-5.304
6.603	82.70	94.8543	17.3900	-5.169
6.637	83.05	94.8361	17.3867	-5.034
6.670	83.40	94.8181	17.3834	-4.897
6.703	83.76	94.8003	17.3801	-4.759
6.737	84.11	94.7827	17.3769	-4.620
[...]
219.620	950.02	-0.4209	-0.0772	49.518
219.737	950.02	-0.4211	-0.0772	49.526
219.853	950.02	-0.4213	-0.0772	49.526
219.970	950.02	-0.4215	-0.0773	49.525
220.087	950.02	-0.4218	-0.0773	49.523
220.203	950.02	-0.4220	-0.0774	49.522
220.320	950.02	-0.4223	-0.0774	49.529
220.437	950.02	-0.4225	-0.0775	49.543
220.553	950.02	-0.4227	-0.0775	49.545
220.670	950.02	-0.4229	-0.0775	49.549
220.787	950.02	-0.4232	-0.0776	49.554
220.903	950.02	-0.4235	-0.0776	49.559
221.020	950.02	-0.4237	-0.0777	49.570
221.137	950.02	-0.4239	-0.0777	49.576
221.253	950.02	-0.4242	-0.0778	49.577
221.370	950.02	-0.4245	-0.0778	49.583
221.487	950.02	-0.4247	-0.0779	49.594
221.603	950.02	-0.4250	-0.0779	49.602
221.720	950.02	-0.4253	-0.0780	49.609
221.837	950.02	-0.4255	-0.0780	49.612
221.953	950.02	-0.4257	-0.0780	49.621
222.070	950.02	-0.4258	-0.0781	49.615
222.187	950.02	-0.4261	-0.0781	49.613
222.303	950.02	-0.4263	-0.0782	49.616
222.420	950.02	-0.4265	-0.0782	49.617
222.537	950.02	-0.4268	-0.0782	49.618
222.653	950.02	-0.4270	-0.0783	49.617
222.770	950.02	-0.4272	-0.0783	49.614
222.887	950.02	-0.4274	-0.0784	49.618
223.003	950.02	-0.4276	-0.0784	49.624
223.120	950.02	-0.4279	-0.0785	49.626
223.237	950.02	-0.4282	-0.0785	49.626
223.353	950.02	-0.4284	-0.0785	49.630
223.470	950.02	-0.4285	-0.0786	49.633
223.587	950.02	-0.4287	-0.0786	49.630
223.703	950.02	-0.4289	-0.0786	49.630
223.820	950.02	-0.4292	-0.0787	49.628
223.937	950.02	-0.4295	-0.0787	49.628
224.053	950.02	-0.4297	-0.0788	49.627
224.170	950.02	-0.4300	-0.0788	49.635
224.287	950.02	-0.4302	-0.0789	49.647
224.403	950.02	-0.4304	-0.0789	49.657
224.520	950.02	-0.4307	-0.0790	49.661
224.637	950.02	-0.4309	-0.0790	49.671
224.753	950.02	-0.4312	-0.0791	49.674
224.870	950.02	-0.4314	-0.0791	49.679
224.987	950.02	-0.4317	-0.0791	49.681
225.103	950.02	-0.4319	-0.0792	49.684
225.220	950.02	-0.4321	-0.0792	49.686
225.337	950.02	-0.4323	-0.0793	49.678
225.453	950.02	-0.4326	-0.0793	49.682
225.570	950.02	-0.4328	-0.0794	49.690
225.687	950.02	-0.4331	-0.0794	49.699
225.803	950.02	-0.4333	-0.0794	49.704
225.920	950.02	-0.4335	-0.0795	49.708
226.037	950.02	-0.4338	-0.0795	49.717
226.153	950.02	-0.4340	-0.0796	49.724
226.270	950.02	-0.4343	-0.0796	49.740
226.387	950.02	-0.4346	-0.0797	49.748
226.503	950.02	-0.4348	-0.0797	49.749
226.620	950.02	-0.4351	-0.0798	49.742
226.737	950.02	-0.4354	-0.0798	49.742
226.853	950.02	-0.4356	-0.0799	49.749
226.970	950.02	-0.4358	-0.0799	49.754
227.087	950.02	-0.4361	-0.0800	49.763
227.203	950.02	-0.4364	-0.0800	49.774
227.320	950.02	-0.4367	-0.0801	49.783
227.437	950.02	-0.4368	-0.0801	49.792
227.553	950.02	-0.4370	-0.0801	49.798
227.670	950.02	-0.4372	-0.0801	49.805
227.787	950.02	-0.4374	-0.0802	49.812
227.903	950.02	-0.4376	-0.0802	49.818
228.020	950.02	-0.4379	-0.0803	49.826
228.137	950.02	-0.4381	-0.0803	49.830
228.253	950.02	-0.4385	-0.0804	49.833
228.370	950.02	-0.4388	-0.0804	49.846
228.487	950.02	-0.4390	-0.0805	49.857
228.603	950.02	-0.4392	-0.0805	49.866
228.720	950.02	-0.4394	-0.0806	49.865
228.837	950.02	-0.4397	-0.0806	49.866
228.953	950.02	-0.4399	-0.0807	49.875
229.070	950.02	-0.4401	-0.0807	49.886
229.187	950.02	-0.4402	-0.0807	49.888
229.303	950.02	-0.4405	-0.0807	49.889
229.420	950.02	-0.4406	-0.0808	49.892
229.537	950.02	-0.4408	-0.0808	49.898
229.653	950.02	-0.4410	-0.0809	49.904
229.770	950.02	-0.4413	-0.0809	49.907
229.887	950.02	-0.4416	-0.0810	49.916
230.003	950.02	-0.4418	-0.0810	49.926
230.120	950.02	-0.4420	-0.0810	49.934
230.237	950.02	-0.4423	-0.0811	49.948
230.353	950.02	-0.4425	-0.0811	49.960
230.470	950.02	-0.4427	-0.0812	49.964
230.587	950.02	-0.4429	-0.0812	49.966
230.703		-0.4432	-0.0812
230.712		-0.4432	-0.0813