Folder: tga_data_analysis/PSO Kinetics/data (part 3)

File: softwood-10Kmin_2.txt
Filename	softwood-10Kmin_2
Instrument name	0650-0369 (192.168.1.2)
Operator	ca527
rundate	1/9/2023
Sample name	softwood-10Kmin_2
proceduresegments	Select Gas: Gas 1 ; Ramp 10.00 °C/min to 110.00 °C; Isothermal 30.0 min; Ramp 10.00 °C/min to 900.00 °C; Isothermal 30.0 min; Select Gas: Gas 2 ; Ramp 10.00 °C/min to 950.00 °C; Isothermal 10.0 min; Data Off ; Equilibrate 30.00 °C
[step]
Ramp 10.00 °C/min to 110.00 °C
Time	Temperature	Weight	Weight	Heat Flow
min	°C	%	mg	mW
0.003		100.0264	4.2976
0.037		100.1584	4.3033
0.070	22.52	100.1997	4.3051	-28.051
0.103	22.66	100.2099	4.3055	-27.913
0.137	22.80	100.2152	4.3057	-27.787
0.170	22.93	100.2177	4.3058	-27.670
0.203	23.07	100.2179	4.3058	-27.558
0.237	23.20	100.2163	4.3058	-27.449
0.270	23.33	100.2127	4.3056	-27.344
0.303	23.47	100.2070	4.3054	-27.239
0.337	23.60	100.1992	4.3050	-27.136
0.370	23.73	100.1894	4.3046	-27.040
0.403	23.86	100.1779	4.3041	-26.948
0.437	24.00	100.1647	4.3035	-26.860
0.470	24.14	100.1495	4.3029	-26.779
0.503	24.28	100.1323	4.3022	-26.706
0.537	24.43	100.1132	4.3013	-26.643
0.570	24.58	100.0922	4.3004	-26.582
0.603	24.74	100.0699	4.2995	-26.525
0.637	24.91	100.0472	4.2985	-26.475
0.670	25.08	100.0242	4.2975	-26.426
0.703	25.25	100.0012	4.2965	-26.380
0.737	25.44	99.9784	4.2955	-26.337
0.770	25.63	99.9562	4.2946	-26.293
0.803	25.83	99.9344	4.2937	-26.245
0.837	26.04	99.9135	4.2928	-26.193
0.870	26.25	99.8933	4.2919	-26.138
0.903	26.47	99.8740	4.2911	-26.073
0.937	26.70	99.8554	4.2903	-25.998
0.970	26.94	99.8375	4.2895	-25.912
1.003	27.18	99.8202	4.2887	-25.822
1.037	27.43	99.8033	4.2880	-25.724
1.070	27.69	99.7867	4.2873	-25.612
1.103	27.95	99.7701	4.2866	-25.492
1.137	28.22	99.7537	4.2859	-25.360
1.170	28.50	99.7371	4.2852	-25.217
1.203	28.79	99.7203	4.2845	-25.064
1.237	29.08	99.7033	4.2837	-24.899
1.270	29.38	99.6862	4.2830	-24.728
1.303	29.68	99.6688	4.2822	-24.548
1.337	29.99	99.6511	4.2815	-24.362
1.370	30.31	99.6331	4.2807	-24.172
1.403	30.63	99.6147	4.2799	-23.973
1.437	30.95	99.5961	4.2791	-23.766
1.470	31.28	99.5771	4.2783	-23.556
1.503	31.61	99.5577	4.2775	-23.341
1.537	31.95	99.5380	4.2766	-23.117
1.570	32.29	99.5180	4.2758	-22.886
1.603	32.64	99.4977	4.2749	-22.652
1.637	32.99	99.4772	4.2740	-22.414
1.670	33.34	99.4564	4.2731	-22.175
1.703	33.69	99.4354	4.2722	-21.929
1.737	34.05	99.4141	4.2713	-21.680
1.770	34.41	99.3925	4.2704	-21.426
1.803	34.77	99.3707	4.2694	-21.172
1.837	35.14	99.3487	4.2685	-20.917
1.870	35.50	99.3265	4.2675	-20.658
1.903	35.87	99.3040	4.2666	-20.394
1.937	36.24	99.2814	4.2656	-20.128
1.970	36.61	99.2585	4.2646	-19.863
2.003	36.99	99.2355	4.2636	-19.597
2.037	37.36	99.2123	4.2626	-19.331
2.070	37.73	99.1888	4.2616	-19.057
2.103	38.11	99.1651	4.2606	-18.785
2.137	38.48	99.1411	4.2596	-18.513
2.170	38.86	99.1168	4.2585	-18.242
2.203	39.23	99.0925	4.2575	-17.964
2.237	39.61	99.0680	4.2564	-17.687
2.270	39.98	99.0433	4.2554	-17.415
2.303	40.36	99.0184	4.2543	-17.138
2.337	40.74	98.9932	4.2532	-16.861
2.370	41.11	98.9678	4.2521	-16.587
2.403	41.49	98.9424	4.2510	-16.317
2.437	41.86	98.9169	4.2499	-16.041
2.470	42.24	98.8911	4.2488	-15.765
2.503	42.61	98.8652	4.2477	-15.490
2.537	42.98	98.8390	4.2466	-15.218
2.570	43.36	98.8128	4.2455	-14.954
2.603	43.73	98.7863	4.2443	-14.691
2.637	44.10	98.7596	4.2432	-14.422
2.670	44.47	98.7327	4.2420	-14.151
2.703	44.84	98.7055	4.2409	-13.882
2.737	45.21	98.6782	4.2397	-13.617
2.770	45.57	98.6506	4.2385	-13.358
2.803	45.94	98.6229	4.2373	-13.100
2.837	46.30	98.5950	4.2361	-12.839
2.870	46.67	98.5672	4.2349	-12.585
2.903	47.03	98.5393	4.2337	-12.337
2.937	47.39	98.5114	4.2325	-12.085
2.970	47.75	98.4832	4.2313	-11.836
3.003	48.11	98.4548	4.2301	-11.585
3.037	48.47	98.4265	4.2289	-11.339
3.070	48.83	98.3980	4.2276	-11.094
3.103	49.19	98.3693	4.2264	-10.854
3.137	49.54	98.3404	4.2252	-10.616
3.170	49.90	98.3115	4.2239	-10.377
3.203	50.25	98.2825	4.2227	-10.139
3.237	50.60	98.2534	4.2214	-9.904
3.270	50.96	98.2244	4.2202	-9.674
3.303	51.31	98.1951	4.2189	-9.445
3.337	51.66	98.1658	4.2177	-9.219
3.370	52.01	98.1364	4.2164	-8.995
3.403	52.36	98.1070	4.2151	-8.773
3.437	52.70	98.0776	4.2139	-8.555
3.470	53.05	98.0481	4.2126	-8.335
3.503	53.40	98.0186	4.2113	-8.118
3.537	53.75	97.9891	4.2101	-7.902
3.570	54.09	97.9596	4.2088	-7.694
3.603	54.44	97.9300	4.2075	-7.485
3.637	54.78	97.9006	4.2063	-7.280
3.670	55.12	97.8712	4.2050	-7.074
3.703	55.47	97.8418	4.2037	-6.869
3.737	55.81	97.8127	4.2025	-6.667
3.770	56.15	97.7837	4.2013	-6.466
3.803	56.49	97.7547	4.2000	-6.266
3.837	56.84	97.7258	4.1988	-6.069
3.870	57.18	97.6969	4.1975	-5.876
3.903	57.52	97.6680	4.1963	-5.686
3.937	57.86	97.6392	4.1950	-5.494
3.970	58.20	97.6105	4.1938	-5.304
4.003	58.54	97.5820	4.1926	-5.117
4.037	58.88	97.5538	4.1914	-4.932
4.070	59.22	97.5259	4.1902	-4.749
4.103	59.56	97.4981	4.1890	-4.566
4.137	59.90	97.4704	4.1878	-4.384
4.170	60.24	97.4428	4.1866	-4.204
4.203	60.58	97.4156	4.1854	-4.023
4.237	60.92	97.3884	4.1843	-3.844
4.270	61.26	97.3615	4.1831	-3.669
4.303	61.60	97.3347	4.1820	-3.497
4.337	61.94	97.3084	4.1808	-3.326
4.370	62.28	97.2824	4.1797	-3.158
4.403	62.62	97.2565	4.1786	-2.983
4.437	62.96	97.2308	4.1775	-2.810
4.470	63.30	97.2055	4.1764	-2.642
4.503	63.64	97.1804	4.1753	-2.478
4.537	63.98	97.1555	4.1743	-2.310
4.570	64.32	97.1309	4.1732	-2.144
4.603	64.66	97.1067	4.1722	-1.980
4.637	65.00	97.0827	4.1711	-1.819
4.670	65.34	97.0590	4.1701	-1.661
4.703	65.68	97.0355	4.1691	-1.507
4.737	66.02	97.0124	4.1681	-1.354
4.770	66.36	96.9894	4.1671	-1.196
4.803	66.70	96.9668	4.1662	-1.042
4.837	67.04	96.9446	4.1652	-0.892
4.870	67.39	96.9227	4.1643	-0.741
4.903	67.73	96.9011	4.1633	-0.588
4.937	68.07	96.8799	4.1624	-0.435
4.970	68.41	96.8590	4.1615	-0.287
5.003	68.75	96.8385	4.1606	-0.145
5.037	69.10	96.8184	4.1598	-0.001
5.070	69.44	96.7986	4.1589	0.140
5.103	69.78	96.7791	4.1581	0.280
5.137	70.12	96.7599	4.1573	0.420
5.170	70.47	96.7411	4.1565	0.559
5.203	70.81	96.7228	4.1557	0.700
5.237	71.15	96.7047	4.1549	0.837
5.270	71.50	96.6868	4.1541	0.976
5.303	71.84	96.6692	4.1534	1.109
5.337	72.18	96.6520	4.1526	1.242
5.370	72.53	96.6351	4.1519	1.375
5.403	72.87	96.6184	4.1512	1.506
5.437	73.22	96.6021	4.1505	1.635
5.470	73.56	96.5860	4.1498	1.762
5.503	73.91	96.5701	4.1491	1.889
5.537	74.25	96.5547	4.1484	2.013
5.570	74.60	96.5396	4.1478	2.138
5.603	74.94	96.5249	4.1472	2.261
5.637	75.29	96.5105	4.1465	2.386
5.670	75.63	96.4965	4.1459	2.510
5.703	75.98	96.4828	4.1454	2.627
5.737	76.33	96.4693	4.1448	2.743
5.770	76.67	96.4561	4.1442	2.861
5.803	77.02	96.4431	4.1437	2.978
5.837	77.36	96.4305	4.1431	3.090
5.870	77.71	96.4181	4.1426	3.201
5.903	78.06	96.4060	4.1421	3.306
5.937	78.40	96.3942	4.1416	3.414
5.970	78.75	96.3829	4.1411	3.524
6.003	79.09	96.3718	4.1406	3.634
6.037	79.44	96.3609	4.1401	3.740
6.070	79.79	96.3502	4.1397	3.840
6.103	80.13	96.3397	4.1392	3.946
6.137	80.48	96.3295	4.1388	4.049
6.170	80.83	96.3197	4.1384	4.148
6.203	81.17	96.3102	4.1379	4.245
6.237	81.52	96.3009	4.1375	4.342
6.270	81.87	96.2918	4.1372	4.437
6.303	82.21	96.2830	4.1368	4.530
6.337	82.56	96.2745	4.1364	4.624
6.370	82.91	96.2662	4.1361	4.716
6.403	83.25	96.2581	4.1357	4.807
6.437	83.60	96.2501	4.1354	4.894
6.470	83.95	96.2422	4.1350	4.978
6.503	84.29	96.2346	4.1347	5.067
6.537	84.64	96.2274	4.1344	5.156
6.570	84.99	96.2204	4.1341	5.242
6.603	85.33	96.2138	4.1338	5.323
6.637	85.68	96.2073	4.1335	5.406
[...]
158.787	949.90	-0.7095	-0.0305	106.111
158.828	949.90	-0.7097	-0.0305	106.135
158.870	949.90	-0.7100	-0.0305	106.165
158.912	949.90	-0.7101	-0.0305	106.202
158.953	949.91	-0.7104	-0.0305	106.237
158.995	949.91	-0.7107	-0.0305	106.261
159.037	949.91	-0.7109	-0.0305	106.278
159.078	949.91	-0.7111	-0.0306	106.295
159.120	949.91	-0.7113	-0.0306	106.317
159.162	949.91	-0.7114	-0.0306	106.342
159.203	949.92	-0.7114	-0.0306	106.373
159.245	949.92	-0.7114	-0.0306	106.401
159.287	949.92	-0.7115	-0.0306	106.422
159.328	949.92	-0.7116	-0.0306	106.442
159.370	949.92	-0.7118	-0.0306	106.461
159.412	949.92	-0.7123	-0.0306	106.481
159.453	949.93	-0.7125	-0.0306	106.504
159.495	949.93	-0.7127	-0.0306	106.527
159.537	949.93	-0.7130	-0.0306	106.555
159.578	949.93	-0.7131	-0.0306	106.585
159.620	949.93	-0.7132	-0.0306	106.613
159.662	949.93	-0.7134	-0.0307	106.645
159.703	949.93	-0.7137	-0.0307	106.677
159.745	949.93	-0.7140	-0.0307	106.706
159.787	949.93	-0.7143	-0.0307	106.728
159.828	949.94	-0.7147	-0.0307	106.740
159.870	949.94	-0.7150	-0.0307	106.750
159.912	949.94	-0.7153	-0.0307	106.769
159.953	949.94	-0.7155	-0.0307	106.785
159.995	949.94	-0.7156	-0.0307	106.794
160.037	949.94	-0.7157	-0.0308	106.802
160.078	949.95	-0.7159	-0.0308	106.810
160.120	949.95	-0.7160	-0.0308	106.820
160.162	949.95	-0.7162	-0.0308	106.831
160.203	949.95	-0.7165	-0.0308	106.844
160.245	949.95	-0.7168	-0.0308	106.862
160.287	949.95	-0.7171	-0.0308	106.879
160.328	949.95	-0.7174	-0.0308	106.894
160.370	949.95	-0.7176	-0.0308	106.907
160.412	949.95	-0.7179	-0.0308	106.924
160.453	949.95	-0.7182	-0.0309	106.943
160.495	949.95	-0.7185	-0.0309	106.958
160.537	949.95	-0.7188	-0.0309	106.975
160.578	949.96	-0.7190	-0.0309	106.990
160.620	949.96	-0.7192	-0.0309	107.006
160.662	949.96	-0.7195	-0.0309	107.025
160.703	949.96	-0.7197	-0.0309	107.047
160.745	949.96	-0.7199	-0.0309	107.072
160.787	949.96	-0.7202	-0.0309	107.091
160.828	949.96	-0.7205	-0.0310	107.105
160.870	949.96	-0.7208	-0.0310	107.119
160.912	949.96	-0.7212	-0.0310	107.134
160.953	949.96	-0.7216	-0.0310	107.149
160.995	949.96	-0.7220	-0.0310	107.166
161.037	949.96	-0.7223	-0.0310	107.185
161.078	949.96	-0.7225	-0.0310	107.202
161.120	949.96	-0.7226	-0.0310	107.215
161.162	949.96	-0.7227	-0.0310	107.228
161.203	949.96	-0.7228	-0.0311	107.240
161.245	949.97	-0.7235	-0.0311	107.255
161.287	949.97	-0.7246	-0.0311	107.266
161.328	949.97	-0.7259	-0.0312	107.271
161.370	949.97	-0.7269	-0.0312	107.274
161.412	949.97	-0.7278	-0.0313	107.279
161.453	949.97	-0.7286	-0.0313	107.287
161.495	949.97	-0.7293	-0.0313	107.297
161.537	949.97	-0.7298	-0.0314	107.308
161.578	949.97	-0.7301	-0.0314	107.320
161.620	949.97	-0.7304	-0.0314	107.334
161.662	949.97	-0.7308	-0.0314	107.346
161.703	949.97	-0.7312	-0.0314	107.358
161.745	949.97	-0.7315	-0.0314	107.374
161.787	949.97	-0.7318	-0.0314	107.390
161.828	949.98	-0.7321	-0.0315	107.407
161.870	949.98	-0.7322	-0.0315	107.425
161.912	949.98	-0.7324	-0.0315	107.443
161.953	949.98	-0.7328	-0.0315	107.460
161.995	949.98	-0.7332	-0.0315	107.478
162.037	949.98	-0.7335	-0.0315	107.499
162.078	949.98	-0.7338	-0.0315	107.517
162.120	949.98	-0.7341	-0.0315	107.528
162.162	949.98	-0.7345	-0.0316	107.539
162.203	949.98	-0.7349	-0.0316	107.549
162.245	949.98	-0.7351	-0.0316	107.559
162.287	949.98	-0.7352	-0.0316	107.570
162.328	949.98	-0.7353	-0.0316	107.581
162.370	949.98	-0.7353	-0.0316	107.588
162.412	949.98	-0.7355	-0.0316	107.594
162.453	949.98	-0.7359	-0.0316	107.600
162.495	949.98	-0.7363	-0.0316	107.605
162.537	949.99	-0.7365	-0.0316	107.611
162.578	949.99	-0.7367	-0.0317	107.618
162.620		-0.7369	-0.0317
162.653		-0.7371	-0.0317

File: softwood-10Kmin_3.txt
Filename	softwood-10Kmin_3
Instrument name	0650-0369 (192.168.1.2)
Operator	ca527
rundate	1/9/2023
Sample name	softwood-10Kmin_3
proceduresegments	Select Gas: Gas 1 ; Ramp 10.00 °C/min to 110.00 °C; Isothermal 30.0 min; Ramp 10.00 °C/min to 900.00 °C; Isothermal 30.0 min; Select Gas: Gas 2 ; Ramp 10.00 °C/min to 950.00 °C; Isothermal 10.0 min; Data Off ; Equilibrate 30.00 °C
[step]
Ramp 10.00 °C/min to 110.00 °C
Time	Temperature	Weight	Weight	Heat Flow
min	°C	%	mg	mW
0.003		100.0118	3.6558
0.037		100.0703	3.6580
0.070	22.80	100.0796	3.6583	-27.322
0.103	22.93	100.0719	3.6580	-27.268
0.137	23.06	100.0612	3.6576	-27.226
0.170	23.19	100.0493	3.6572	-27.185
0.203	23.32	100.0367	3.6567	-27.145
0.237	23.44	100.0234	3.6562	-27.104
0.270	23.56	100.0092	3.6557	-27.062
0.303	23.69	99.9937	3.6552	-27.023
0.337	23.81	99.9768	3.6545	-26.986
0.370	23.94	99.9585	3.6539	-26.947
0.403	24.06	99.9388	3.6532	-26.904
0.437	24.19	99.9177	3.6524	-26.869
0.470	24.32	99.8947	3.6515	-26.841
0.503	24.46	99.8698	3.6506	-26.820
0.537	24.60	99.8430	3.6497	-26.805
0.570	24.75	99.8149	3.6486	-26.796
0.603	24.90	99.7857	3.6476	-26.791
0.637	25.06	99.7563	3.6465	-26.788
0.670	25.23	99.7268	3.6454	-26.789
0.703	25.40	99.6976	3.6443	-26.791
0.737	25.58	99.6690	3.6433	-26.794
0.770	25.76	99.6412	3.6423	-26.799
0.803	25.96	99.6144	3.6413	-26.804
0.837	26.16	99.5885	3.6403	-26.809
0.870	26.37	99.5635	3.6394	-26.812
0.903	26.58	99.5394	3.6386	-26.812
0.937	26.81	99.5162	3.6377	-26.805
0.970	27.04	99.4938	3.6369	-26.788
1.003	27.27	99.4720	3.6361	-26.758
1.037	27.52	99.4506	3.6353	-26.710
1.070	27.77	99.4295	3.6345	-26.654
1.103	28.03	99.4084	3.6338	-26.587
1.137	28.30	99.3873	3.6330	-26.513
1.170	28.57	99.3661	3.6322	-26.434
1.203	28.85	99.3448	3.6314	-26.347
1.237	29.14	99.3232	3.6307	-26.255
1.270	29.43	99.3014	3.6299	-26.155
1.303	29.73	99.2795	3.6291	-26.050
1.337	30.03	99.2574	3.6282	-25.936
1.370	30.34	99.2349	3.6274	-25.813
1.403	30.66	99.2122	3.6266	-25.684
1.437	30.98	99.1891	3.6257	-25.550
1.470	31.30	99.1657	3.6249	-25.413
1.503	31.63	99.1419	3.6240	-25.268
1.537	31.96	99.1179	3.6231	-25.116
1.570	32.30	99.0938	3.6223	-24.959
1.603	32.64	99.0694	3.6214	-24.796
1.637	32.98	99.0446	3.6205	-24.629
1.670	33.33	99.0195	3.6196	-24.460
1.703	33.68	98.9944	3.6186	-24.288
1.737	34.03	98.9690	3.6177	-24.109
1.770	34.39	98.9435	3.6168	-23.928
1.803	34.74	98.9178	3.6158	-23.745
1.837	35.10	98.8919	3.6149	-23.555
1.870	35.46	98.8658	3.6139	-23.360
1.903	35.83	98.8396	3.6130	-23.160
1.937	36.19	98.8131	3.6120	-22.961
1.970	36.56	98.7864	3.6110	-22.755
2.003	36.93	98.7595	3.6100	-22.546
2.037	37.30	98.7324	3.6091	-22.332
2.070	37.67	98.7052	3.6081	-22.115
2.103	38.04	98.6777	3.6071	-21.900
2.137	38.41	98.6501	3.6060	-21.682
2.170	38.78	98.6223	3.6050	-21.459
2.203	39.15	98.5943	3.6040	-21.231
2.237	39.52	98.5659	3.6030	-21.007
2.270	39.90	98.5374	3.6019	-20.777
2.303	40.27	98.5087	3.6009	-20.545
2.337	40.64	98.4798	3.5998	-20.311
2.370	41.02	98.4506	3.5988	-20.078
2.403	41.39	98.4213	3.5977	-19.845
2.437	41.76	98.3917	3.5966	-19.606
2.470	42.13	98.3618	3.5955	-19.370
2.503	42.50	98.3318	3.5944	-19.136
2.537	42.87	98.3017	3.5933	-18.902
2.570	43.25	98.2713	3.5922	-18.664
2.603	43.61	98.2408	3.5911	-18.422
2.637	43.98	98.2101	3.5900	-18.184
2.670	44.35	98.1792	3.5888	-17.946
2.703	44.72	98.1482	3.5877	-17.707
2.737	45.08	98.1171	3.5866	-17.467
2.770	45.45	98.0857	3.5854	-17.227
2.803	45.82	98.0540	3.5843	-16.987
2.837	46.18	98.0222	3.5831	-16.746
2.870	46.54	97.9904	3.5819	-16.509
2.903	46.90	97.9584	3.5808	-16.273
2.937	47.26	97.9263	3.5796	-16.037
2.970	47.62	97.8941	3.5784	-15.802
3.003	47.98	97.8617	3.5772	-15.565
3.037	48.34	97.8292	3.5760	-15.331
3.070	48.70	97.7966	3.5748	-15.098
3.103	49.05	97.7640	3.5737	-14.868
3.137	49.41	97.7314	3.5725	-14.637
3.170	49.76	97.6988	3.5713	-14.407
3.203	50.12	97.6663	3.5701	-14.178
3.237	50.47	97.6337	3.5689	-13.951
3.270	50.82	97.6011	3.5677	-13.723
3.303	51.17	97.5684	3.5665	-13.499
3.337	51.52	97.5358	3.5653	-13.275
3.370	51.87	97.5031	3.5641	-13.055
3.403	52.22	97.4704	3.5629	-12.836
3.437	52.57	97.4377	3.5617	-12.616
3.470	52.92	97.4052	3.5605	-12.398
3.503	53.27	97.3727	3.5594	-12.182
3.537	53.61	97.3404	3.5582	-11.969
3.570	53.96	97.3082	3.5570	-11.755
3.603	54.30	97.2760	3.5558	-11.540
3.637	54.65	97.2438	3.5546	-11.328
3.670	54.99	97.2118	3.5535	-11.120
3.703	55.34	97.1799	3.5523	-10.914
3.737	55.68	97.1482	3.5511	-10.707
3.770	56.02	97.1167	3.5500	-10.500
3.803	56.37	97.0854	3.5488	-10.296
3.837	56.71	97.0541	3.5477	-10.094
3.870	57.05	97.0229	3.5466	-9.894
3.903	57.39	96.9920	3.5454	-9.695
3.937	57.73	96.9614	3.5443	-9.501
3.970	58.07	96.9312	3.5432	-9.309
4.003	58.42	96.9011	3.5421	-9.119
4.037	58.76	96.8712	3.5410	-8.926
4.070	59.10	96.8416	3.5399	-8.733
4.103	59.44	96.8124	3.5389	-8.544
4.137	59.78	96.7833	3.5378	-8.357
4.170	60.12	96.7545	3.5368	-8.175
4.203	60.46	96.7260	3.5357	-7.994
4.237	60.80	96.6978	3.5347	-7.813
4.270	61.14	96.6699	3.5337	-7.630
4.303	61.48	96.6421	3.5326	-7.445
4.337	61.82	96.6145	3.5316	-7.265
4.370	62.16	96.5873	3.5306	-7.089
4.403	62.50	96.5603	3.5297	-6.917
4.437	62.84	96.5337	3.5287	-6.743
4.470	63.18	96.5074	3.5277	-6.568
4.503	63.53	96.4816	3.5268	-6.394
4.537	63.87	96.4563	3.5259	-6.224
4.570	64.21	96.4313	3.5249	-6.055
4.603	64.55	96.4066	3.5240	-5.886
4.637	64.89	96.3823	3.5231	-5.722
4.670	65.23	96.3581	3.5223	-5.557
4.703	65.57	96.3342	3.5214	-5.394
4.737	65.91	96.3107	3.5205	-5.231
4.770	66.25	96.2876	3.5197	-5.071
4.803	66.59	96.2648	3.5189	-4.916
4.837	66.94	96.2423	3.5180	-4.763
4.870	67.28	96.2203	3.5172	-4.611
4.903	67.62	96.1985	3.5164	-4.458
4.937	67.96	96.1771	3.5156	-4.305
4.970	68.31	96.1560	3.5149	-4.153
5.003	68.65	96.1354	3.5141	-4.002
5.037	68.99	96.1151	3.5134	-3.852
5.070	69.33	96.0953	3.5127	-3.706
5.103	69.68	96.0757	3.5119	-3.563
5.137	70.02	96.0565	3.5112	-3.422
5.170	70.36	96.0378	3.5106	-3.281
5.203	70.71	96.0194	3.5099	-3.139
5.237	71.05	96.0011	3.5092	-3.000
5.270	71.39	95.9833	3.5086	-2.862
5.303	71.74	95.9659	3.5079	-2.721
5.337	72.08	95.9488	3.5073	-2.587
5.370	72.42	95.9320	3.5067	-2.452
5.403	72.77	95.9157	3.5061	-2.320
5.437	73.11	95.8997	3.5055	-2.191
5.470	73.46	95.8841	3.5049	-2.062
5.503	73.80	95.8688	3.5044	-1.934
5.537	74.15	95.8537	3.5038	-1.804
5.570	74.50	95.8389	3.5033	-1.677
5.603	74.84	95.8245	3.5028	-1.554
5.637	75.19	95.8103	3.5022	-1.432
5.670	75.53	95.7964	3.5017	-1.312
5.703	75.88	95.7828	3.5012	-1.193
5.737	76.22	95.7694	3.5007	-1.073
5.770	76.57	95.7565	3.5003	-0.955
5.803	76.92	95.7438	3.4998	-0.843
5.837	77.26	95.7314	3.4994	-0.730
5.870	77.61	95.7193	3.4989	-0.618
5.903	77.95	95.7075	3.4985	-0.503
5.937	78.30	95.6960	3.4981	-0.391
5.970	78.65	95.6849	3.4977	-0.283
6.003	78.99	95.6740	3.4973	-0.179
6.037	79.34	95.6635	3.4969	-0.073
6.070	79.69	95.6532	3.4965	0.031
6.103	80.03	95.6431	3.4961	0.132
6.137	80.38	95.6332	3.4958	0.234
6.170	80.72	95.6236	3.4954	0.338
6.203	81.07	95.6143	3.4951	0.438
6.237	81.42	95.6053	3.4947	0.533
6.270	81.76	95.5965	3.4944	0.630
6.303	82.11	95.5880	3.4941	0.724
6.337	82.46	95.5797	3.4938	0.817
6.370	82.80	95.5715	3.4935	0.908
6.403	83.15	95.5635	3.4932	1.000
6.437	83.50	95.5558	3.4929	1.093
6.470	83.84	95.5483	3.4927	1.185
6.503	84.19	95.5412	3.4924	1.276
6.537	84.54	95.5344	3.4922	1.360
6.570	84.89	95.5277	3.4919	1.446
6.603	85.23	95.5211	3.4917	1.533
[...]
158.645	949.57	-3.6019	-0.1317	92.584
158.687	949.58	-3.6021	-0.1317	92.641
158.728	949.58	-3.6025	-0.1317	92.705
158.770	949.58	-3.6030	-0.1317	92.760
158.812	949.58	-3.6033	-0.1317	92.807
158.853	949.58	-3.6036	-0.1317	92.854
158.895	949.59	-3.6038	-0.1317	92.898
158.937	949.59	-3.6040	-0.1317	92.942
158.978	949.59	-3.6042	-0.1317	92.988
159.020	949.59	-3.6044	-0.1318	93.029
159.062	949.59	-3.6047	-0.1318	93.067
159.103	949.60	-3.6049	-0.1318	93.104
159.145	949.60	-3.6053	-0.1318	93.148
159.187	949.60	-3.6057	-0.1318	93.194
159.228	949.60	-3.6061	-0.1318	93.240
159.270	949.61	-3.6064	-0.1318	93.279
159.312	949.61	-3.6067	-0.1318	93.305
159.353	949.61	-3.6068	-0.1318	93.328
159.395	949.61	-3.6069	-0.1318	93.352
159.437	949.61	-3.6072	-0.1319	93.383
159.478	949.62	-3.6074	-0.1319	93.415
159.520	949.62	-3.6077	-0.1319	93.448
159.562	949.62	-3.6078	-0.1319	93.490
159.603	949.62	-3.6079	-0.1319	93.534
159.645	949.62	-3.6081	-0.1319	93.572
159.687	949.62	-3.6084	-0.1319	93.609
159.728	949.62	-3.6086	-0.1319	93.653
159.770	949.63	-3.6088	-0.1319	93.700
159.812	949.63	-3.6090	-0.1319	93.737
159.853	949.63	-3.6092	-0.1319	93.762
159.895	949.63	-3.6096	-0.1319	93.781
159.937	949.63	-3.6100	-0.1320	93.800
159.978	949.63	-3.6103	-0.1320	93.824
160.020	949.63	-3.6106	-0.1320	93.853
160.062	949.64	-3.6109	-0.1320	93.882
160.103	949.64	-3.6112	-0.1320	93.911
160.145	949.64	-3.6114	-0.1320	93.940
160.187	949.64	-3.6117	-0.1320	93.969
160.228	949.64	-3.6121	-0.1320	93.999
160.270	949.64	-3.6122	-0.1320	94.030
160.312	949.64	-3.6124	-0.1320	94.066
160.353	949.64	-3.6129	-0.1321	94.105
160.395	949.64	-3.6132	-0.1321	94.134
160.437	949.65	-3.6135	-0.1321	94.163
160.478	949.65	-3.6137	-0.1321	94.198
160.520	949.65	-3.6141	-0.1321	94.231
160.562	949.65	-3.6143	-0.1321	94.264
160.603	949.65	-3.6145	-0.1321	94.294
160.645	949.65	-3.6146	-0.1321	94.317
160.687	949.65	-3.6147	-0.1321	94.342
160.728	949.65	-3.6151	-0.1321	94.363
160.770	949.65	-3.6155	-0.1322	94.387
160.812	949.65	-3.6157	-0.1322	94.409
160.853	949.66	-3.6159	-0.1322	94.422
160.895	949.66	-3.6164	-0.1322	94.435
160.937	949.66	-3.6168	-0.1322	94.445
160.978	949.66	-3.6170	-0.1322	94.457
161.020	949.66	-3.6172	-0.1322	94.472
161.062	949.66	-3.6174	-0.1322	94.488
161.103	949.66	-3.6176	-0.1322	94.505
161.145	949.66	-3.6177	-0.1322	94.524
161.187	949.67	-3.6177	-0.1322	94.544
161.228	949.67	-3.6178	-0.1322	94.566
161.270	949.67	-3.6181	-0.1323	94.588
161.312	949.67	-3.6185	-0.1323	94.611
161.353	949.67	-3.6189	-0.1323	94.640
161.395	949.67	-3.6193	-0.1323	94.677
161.437	949.67	-3.6196	-0.1323	94.713
161.478	949.67	-3.6199	-0.1323	94.740
161.520	949.67	-3.6201	-0.1323	94.767
161.562	949.67	-3.6203	-0.1323	94.793
161.603	949.67	-3.6205	-0.1323	94.812
161.645	949.67	-3.6207	-0.1323	94.827
161.687	949.67	-3.6210	-0.1324	94.843
161.728	949.67	-3.6213	-0.1324	94.857
161.770	949.67	-3.6214	-0.1324	94.869
161.812	949.68	-3.6215	-0.1324	94.884
161.853	949.68	-3.6216	-0.1324	94.904
161.895	949.68	-3.6216	-0.1324	94.922
161.937	949.68	-3.6215	-0.1324	94.939
161.978	949.68	-3.6217	-0.1324	94.957
162.020	949.68	-3.6219	-0.1324	94.976
162.062	949.68	-3.6223	-0.1324	94.995
162.103	949.68	-3.6225	-0.1324	95.020
162.145	949.68	-3.6227	-0.1324	95.049
162.187	949.68	-3.6230	-0.1324	95.077
162.228	949.68	-3.6232	-0.1324	95.103
162.270	949.68	-3.6234	-0.1324	95.123
162.312	949.68	-3.6235	-0.1325	95.139
162.353	949.68	-3.6236	-0.1325	95.160
162.395	949.68	-3.6236	-0.1325	95.191
162.437	949.68	-3.6238	-0.1325	95.226
162.478	949.68	-3.6242	-0.1325	95.253
162.520	949.69	-3.6246	-0.1325	95.270
162.562	949.69	-3.6250	-0.1325	95.285
162.603		-3.6254	-0.1325
162.637		-3.6256	-0.1325