Folder: tga_data_analysis/PSO Kinetics/data (part 6)

File: softwood-50Kmin_2.txt
Filename	softwood-50Kmin_2
Instrument name	0650-0369 (192.168.1.2)
Operator	ca527
rundate	1/8/2023
Sample name	softwood-50Kmin_2
proceduresegments	Select Gas: Gas 1 ; Ramp 10.00 °C/min to 110.00 °C; Isothermal 30.0 min; Ramp 50.00 °C/min to 900.00 °C; Isothermal 30.0 min; Select Gas: Gas 2 ; Ramp 10.00 °C/min to 950.00 °C; Isothermal 10.0 min; Data Off ; Equilibrate 30.00 °C
[step]
Ramp 10.00 °C/min to 110.00 °C
Time	Temperature	Weight	Weight	Heat Flow
min	°C	%	mg	mW
0.003		100.0242	4.6566
0.037		100.1733	4.6635
0.070	23.84	100.3052	4.6697	-25.947
0.103	23.97	100.3722	4.6728	-25.861
0.137	24.08	100.3909	4.6736	-25.790
0.170	24.20	100.4037	4.6742	-25.721
0.203	24.32	100.4135	4.6747	-25.658
0.237	24.43	100.4206	4.6750	-25.593
0.270	24.55	100.4250	4.6752	-25.535
0.303	24.66	100.4269	4.6753	-25.481
0.337	24.77	100.4265	4.6753	-25.432
0.370	24.89	100.4241	4.6752	-25.388
0.403	25.01	100.4197	4.6750	-25.345
0.437	25.13	100.4132	4.6747	-25.308
0.470	25.25	100.4047	4.6743	-25.277
0.503	25.39	100.3941	4.6738	-25.252
0.537	25.53	100.3819	4.6732	-25.232
0.570	25.67	100.3683	4.6726	-25.217
0.603	25.82	100.3535	4.6719	-25.207
0.637	25.98	100.3378	4.6712	-25.203
0.670	26.14	100.3216	4.6704	-25.202
0.703	26.31	100.3051	4.6696	-25.201
0.737	26.49	100.2887	4.6689	-25.201
0.770	26.68	100.2727	4.6681	-25.204
0.803	26.88	100.2573	4.6674	-25.207
0.837	27.08	100.2427	4.6667	-25.210
0.870	27.29	100.2289	4.6661	-25.212
0.903	27.51	100.2161	4.6655	-25.211
0.937	27.73	100.2042	4.6650	-25.204
0.970	27.97	100.1931	4.6644	-25.184
1.003	28.21	100.1827	4.6640	-25.145
1.037	28.46	100.1729	4.6635	-25.090
1.070	28.72	100.1636	4.6631	-25.019
1.103	28.98	100.1546	4.6626	-24.937
1.137	29.25	100.1460	4.6622	-24.847
1.170	29.53	100.1373	4.6618	-24.750
1.203	29.82	100.1286	4.6614	-24.635
1.237	30.12	100.1196	4.6610	-24.507
1.270	30.42	100.1103	4.6606	-24.366
1.303	30.72	100.1007	4.6601	-24.216
1.337	31.04	100.0909	4.6597	-24.054
1.370	31.36	100.0807	4.6592	-23.882
1.403	31.68	100.0702	4.6587	-23.701
1.437	32.01	100.0593	4.6582	-23.512
1.470	32.34	100.0480	4.6577	-23.318
1.503	32.68	100.0362	4.6571	-23.115
1.537	33.03	100.0240	4.6566	-22.903
1.570	33.37	100.0116	4.6560	-22.688
1.603	33.72	99.9988	4.6554	-22.465
1.637	34.08	99.9857	4.6548	-22.235
1.670	34.43	99.9722	4.6542	-22.004
1.703	34.79	99.9584	4.6535	-21.763
1.737	35.16	99.9443	4.6529	-21.520
1.770	35.52	99.9300	4.6522	-21.270
1.803	35.89	99.9153	4.6515	-21.020
1.837	36.26	99.9003	4.6508	-20.769
1.870	36.63	99.8849	4.6501	-20.511
1.903	37.01	99.8692	4.6494	-20.247
1.937	37.38	99.8531	4.6486	-19.984
1.970	37.76	99.8369	4.6479	-19.721
2.003	38.13	99.8203	4.6471	-19.458
2.037	38.51	99.8034	4.6463	-19.190
2.070	38.89	99.7861	4.6455	-18.921
2.103	39.27	99.7686	4.6447	-18.648
2.137	39.65	99.7506	4.6438	-18.377
2.170	40.03	99.7323	4.6430	-18.109
2.203	40.41	99.7137	4.6421	-17.838
2.237	40.79	99.6948	4.6412	-17.566
2.270	41.17	99.6757	4.6403	-17.295
2.303	41.55	99.6562	4.6394	-17.023
2.337	41.93	99.6363	4.6385	-16.748
2.370	42.30	99.6160	4.6376	-16.476
2.403	42.68	99.5954	4.6366	-16.203
2.437	43.06	99.5743	4.6356	-15.933
2.470	43.43	99.5530	4.6346	-15.662
2.503	43.81	99.5315	4.6336	-15.394
2.537	44.18	99.5096	4.6326	-15.128
2.570	44.56	99.4874	4.6316	-14.860
2.603	44.93	99.4650	4.6305	-14.595
2.637	45.30	99.4423	4.6295	-14.333
2.670	45.67	99.4194	4.6284	-14.074
2.703	46.04	99.3961	4.6273	-13.814
2.737	46.41	99.3726	4.6262	-13.556
2.770	46.78	99.3488	4.6251	-13.303
2.803	47.15	99.3247	4.6240	-13.050
2.837	47.51	99.3002	4.6229	-12.800
2.870	47.87	99.2754	4.6217	-12.549
2.903	48.24	99.2505	4.6206	-12.300
2.937	48.60	99.2253	4.6194	-12.052
2.970	48.96	99.1998	4.6182	-11.808
3.003	49.32	99.1741	4.6170	-11.566
3.037	49.68	99.1481	4.6158	-11.329
3.070	50.04	99.1218	4.6146	-11.092
3.103	50.39	99.0953	4.6133	-10.857
3.137	50.75	99.0688	4.6121	-10.623
3.170	51.10	99.0420	4.6108	-10.393
3.203	51.45	99.0150	4.6096	-10.164
3.237	51.81	98.9878	4.6083	-9.938
3.270	52.16	98.9604	4.6070	-9.713
3.303	52.51	98.9328	4.6058	-9.491
3.337	52.86	98.9052	4.6045	-9.270
3.370	53.21	98.8775	4.6032	-9.055
3.403	53.56	98.8496	4.6019	-8.841
3.437	53.90	98.8215	4.6006	-8.626
3.470	54.25	98.7933	4.5993	-8.413
3.503	54.60	98.7649	4.5979	-8.205
3.537	54.94	98.7366	4.5966	-8.000
3.570	55.28	98.7082	4.5953	-7.794
3.603	55.63	98.6798	4.5940	-7.586
3.637	55.97	98.6515	4.5927	-7.381
3.670	56.32	98.6232	4.5913	-7.179
3.703	56.66	98.5948	4.5900	-6.984
3.737	57.00	98.5664	4.5887	-6.787
3.770	57.34	98.5381	4.5874	-6.591
3.803	57.68	98.5097	4.5861	-6.398
3.837	58.02	98.4814	4.5847	-6.208
3.870	58.36	98.4531	4.5834	-6.017
3.903	58.71	98.4249	4.5821	-5.827
3.937	59.05	98.3967	4.5808	-5.642
3.970	59.39	98.3687	4.5795	-5.460
4.003	59.73	98.3409	4.5782	-5.279
4.037	60.06	98.3132	4.5769	-5.095
4.070	60.40	98.2856	4.5756	-4.913
4.103	60.74	98.2582	4.5744	-4.730
4.137	61.08	98.2307	4.5731	-4.551
4.170	61.42	98.2035	4.5718	-4.373
4.203	61.76	98.1766	4.5706	-4.193
4.237	62.10	98.1499	4.5693	-4.018
4.270	62.44	98.1233	4.5681	-3.847
4.303	62.78	98.0969	4.5668	-3.675
4.337	63.12	98.0706	4.5656	-3.505
4.370	63.46	98.0447	4.5644	-3.337
4.403	63.80	98.0190	4.5632	-3.167
4.437	64.14	97.9935	4.5620	-3.001
4.470	64.48	97.9683	4.5609	-2.834
4.503	64.82	97.9433	4.5597	-2.669
4.537	65.16	97.9186	4.5585	-2.504
4.570	65.50	97.8940	4.5574	-2.343
4.603	65.84	97.8697	4.5563	-2.183
4.637	66.18	97.8458	4.5552	-2.023
4.670	66.52	97.8221	4.5541	-1.862
4.703	66.86	97.7987	4.5530	-1.704
4.737	67.20	97.7755	4.5519	-1.547
4.770	67.54	97.7525	4.5508	-1.393
4.803	67.88	97.7300	4.5498	-1.241
4.837	68.22	97.7077	4.5487	-1.090
4.870	68.56	97.6858	4.5477	-0.938
4.903	68.91	97.6642	4.5467	-0.786
4.937	69.25	97.6428	4.5457	-0.635
4.970	69.59	97.6217	4.5447	-0.487
5.003	69.93	97.6008	4.5438	-0.342
5.037	70.27	97.5803	4.5428	-0.192
5.070	70.62	97.5600	4.5419	-0.045
5.103	70.96	97.5401	4.5409	0.100
5.137	71.30	97.5205	4.5400	0.241
5.170	71.65	97.5012	4.5391	0.384
5.203	71.99	97.4822	4.5382	0.526
5.237	72.34	97.4634	4.5374	0.662
5.270	72.68	97.4450	4.5365	0.800
5.303	73.02	97.4269	4.5357	0.940
5.337	73.37	97.4092	4.5348	1.076
5.370	73.71	97.3917	4.5340	1.209
5.403	74.06	97.3744	4.5332	1.338
5.437	74.40	97.3575	4.5324	1.469
5.470	74.75	97.3409	4.5317	1.601
5.503	75.09	97.3248	4.5309	1.730
5.537	75.44	97.3090	4.5302	1.860
5.570	75.78	97.2934	4.5294	1.986
5.603	76.12	97.2782	4.5287	2.113
5.637	76.47	97.2632	4.5280	2.236
5.670	76.82	97.2486	4.5274	2.357
5.703	77.16	97.2342	4.5267	2.478
5.737	77.51	97.2202	4.5260	2.601
5.770	77.85	97.2065	4.5254	2.722
5.803	78.20	97.1931	4.5248	2.840
5.837	78.55	97.1800	4.5242	2.958
5.870	78.89	97.1671	4.5236	3.077
5.903	79.24	97.1545	4.5230	3.195
5.937	79.59	97.1422	4.5224	3.311
5.970	79.93	97.1302	4.5218	3.427
6.003	80.28	97.1184	4.5213	3.538
6.037	80.63	97.1068	4.5208	3.644
6.070	80.98	97.0955	4.5202	3.749
6.103	81.32	97.0846	4.5197	3.854
6.137	81.67	97.0739	4.5192	3.961
6.170	82.02	97.0635	4.5187	4.066
6.203	82.36	97.0534	4.5183	4.167
6.237	82.71	97.0436	4.5178	4.269
6.270	83.06	97.0341	4.5174	4.373
6.303	83.41	97.0246	4.5169	4.475
6.337	83.75	97.0154	4.5165	4.571
6.370	84.10	97.0065	4.5161	4.670
6.403	84.45	96.9979	4.5157	4.769
6.437	84.80	96.9894	4.5153	4.866
6.470	85.14	96.9812	4.5149	4.962
6.503	85.49	96.9732	4.5145	5.055
6.537	85.84	96.9654	4.5142	5.144
6.570	86.18	96.9580	4.5138	5.231
6.603	86.53	96.9507	4.5135	5.319
[...]
95.345	950.10	-3.3871	-0.1577	114.621
95.387	950.10	-3.3875	-0.1577	114.650
95.428	950.10	-3.3878	-0.1577	114.675
95.470	950.11	-3.3881	-0.1577	114.695
95.512	950.11	-3.3886	-0.1578	114.710
95.553	950.11	-3.3891	-0.1578	114.725
95.595	950.11	-3.3897	-0.1578	114.742
95.637	950.11	-3.3901	-0.1578	114.764
95.678	950.12	-3.3905	-0.1578	114.788
95.720	950.12	-3.3910	-0.1579	114.808
95.762	950.12	-3.3915	-0.1579	114.827
95.803	950.12	-3.3919	-0.1579	114.849
95.845	950.12	-3.3922	-0.1579	114.873
95.887	950.12	-3.3926	-0.1579	114.900
95.928	950.13	-3.3930	-0.1580	114.923
95.970	950.13	-3.3933	-0.1580	114.941
96.012	950.13	-3.3937	-0.1580	114.960
96.053	950.13	-3.3941	-0.1580	114.978
96.095	950.13	-3.3945	-0.1580	114.995
96.137	950.13	-3.3948	-0.1580	115.016
96.178	950.13	-3.3953	-0.1581	115.042
96.220	950.14	-3.3957	-0.1581	115.063
96.262	950.14	-3.3960	-0.1581	115.079
96.303	950.14	-3.3964	-0.1581	115.095
96.345	950.14	-3.3968	-0.1581	115.112
96.387	950.14	-3.3973	-0.1582	115.129
96.428	950.14	-3.3977	-0.1582	115.149
96.470	950.14	-3.3980	-0.1582	115.166
96.512	950.14	-3.3983	-0.1582	115.180
96.553	950.14	-3.3988	-0.1582	115.193
96.595	950.15	-3.3992	-0.1582	115.209
96.637	950.15	-3.3996	-0.1583	115.224
96.678	950.15	-3.3999	-0.1583	115.237
96.720	950.15	-3.4001	-0.1583	115.251
96.762	950.15	-3.4005	-0.1583	115.265
96.803	950.15	-3.4010	-0.1583	115.276
96.845	950.15	-3.4014	-0.1584	115.287
96.887	950.15	-3.4018	-0.1584	115.298
96.928	950.15	-3.4022	-0.1584	115.309
96.970	950.15	-3.4026	-0.1584	115.319
97.012	950.15	-3.4030	-0.1584	115.331
97.053	950.15	-3.4035	-0.1584	115.345
97.095	950.16	-3.4040	-0.1585	115.359
97.137	950.16	-3.4044	-0.1585	115.374
97.178	950.16	-3.4047	-0.1585	115.388
97.220	950.16	-3.4052	-0.1585	115.399
97.262	950.16	-3.4056	-0.1585	115.409
97.303	950.16	-3.4060	-0.1586	115.418
97.345	950.16	-3.4065	-0.1586	115.427
97.387	950.16	-3.4070	-0.1586	115.435
97.428	950.16	-3.4075	-0.1586	115.441
97.470	950.16	-3.4080	-0.1587	115.450
97.512	950.16	-3.4083	-0.1587	115.465
97.553	950.16	-3.4084	-0.1587	115.478
97.595	950.17	-3.4086	-0.1587	115.488
97.637	950.17	-3.4089	-0.1587	115.498
97.678	950.17	-3.4093	-0.1587	115.510
97.720	950.17	-3.4097	-0.1587	115.518
97.762	950.17	-3.4098	-0.1587	115.522
97.803	950.17	-3.4101	-0.1588	115.527
97.845	950.17	-3.4105	-0.1588	115.533
97.887	950.17	-3.4110	-0.1588	115.541
97.928	950.17	-3.4114	-0.1588	115.550
97.970	950.17	-3.4117	-0.1588	115.558
98.012	950.17	-3.4121	-0.1589	115.565
98.053	950.17	-3.4127	-0.1589	115.574
98.095	950.17	-3.4132	-0.1589	115.580
98.137	950.17	-3.4138	-0.1589	115.586
98.178	950.17	-3.4143	-0.1589	115.593
98.220	950.17	-3.4147	-0.1590	115.599
98.262	950.17	-3.4149	-0.1590	115.605
98.303	950.17	-3.4152	-0.1590	115.611
98.345	950.17	-3.4156	-0.1590	115.615
98.387	950.18	-3.4160	-0.1590	115.617
98.428	950.18	-3.4164	-0.1590	115.618
98.470	950.18	-3.4169	-0.1591	115.620
98.512	950.18	-3.4173	-0.1591	115.623
98.553	950.18	-3.4177	-0.1591	115.629
98.595	950.18	-3.4180	-0.1591	115.635
98.637	950.18	-3.4184	-0.1591	115.640
98.678	950.18	-3.4188	-0.1592	115.643
98.720	950.18	-3.4191	-0.1592	115.648
98.762	950.18	-3.4194	-0.1592	115.654
98.803	950.18	-3.4198	-0.1592	115.658
98.845	950.18	-3.4203	-0.1592	115.660
98.887	950.18	-3.4208	-0.1593	115.667
98.928	950.18	-3.4214	-0.1593	115.677
98.970	950.18	-3.4219	-0.1593	115.684
99.012	950.18	-3.4224	-0.1593	115.690
99.053	950.18	-3.4229	-0.1594	115.697
99.095	950.18	-3.4235	-0.1594	115.707
99.137	950.18	-3.4240	-0.1594	115.716
99.178	950.18	-3.4245	-0.1594	115.721
99.220	950.18	-3.4250	-0.1594	115.726
99.262	950.18	-3.4254	-0.1595	115.729
99.303		-3.4259	-0.1595
99.337		-3.4262	-0.1595

File: softwood-50Kmin_3.txt
Filename	softwood-50Kmin_3
Instrument name	0650-0369 (192.168.1.2)
Operator	ca527
rundate	1/8/2023
Sample name	softwood-50Kmin_3
proceduresegments	Select Gas: Gas 1 ; Ramp 10.00 °C/min to 110.00 °C; Isothermal 30.0 min; Ramp 50.00 °C/min to 900.00 °C; Isothermal 30.0 min; Select Gas: Gas 2 ; Ramp 10.00 °C/min to 950.00 °C; Isothermal 10.0 min; Data Off ; Equilibrate 30.00 °C
[step]
Ramp 10.00 °C/min to 110.00 °C
Time	Temperature	Weight	Weight	Heat Flow
min	°C	%	mg	mW
0.003		100.0373	4.4117
0.037		100.2686	4.4219
0.070	22.81	100.3897	4.4273	-27.153
0.103	22.95	100.4253	4.4288	-27.062
0.137	23.08	100.4350	4.4293	-26.980
0.170	23.22	100.4414	4.4296	-26.898
0.203	23.35	100.4457	4.4297	-26.813
0.237	23.48	100.4481	4.4298	-26.732
0.270	23.60	100.4486	4.4299	-26.656
0.303	23.73	100.4472	4.4298	-26.584
0.337	23.86	100.4438	4.4297	-26.513
0.370	23.99	100.4386	4.4294	-26.442
0.403	24.12	100.4317	4.4291	-26.371
0.437	24.25	100.4231	4.4287	-26.303
0.470	24.38	100.4127	4.4283	-26.244
0.503	24.52	100.4006	4.4278	-26.192
0.537	24.67	100.3866	4.4271	-26.145
0.570	24.82	100.3711	4.4265	-26.102
0.603	24.97	100.3545	4.4257	-26.064
0.637	25.14	100.3371	4.4250	-26.035
0.670	25.30	100.3192	4.4242	-26.018
0.703	25.48	100.3011	4.4234	-26.000
0.737	25.66	100.2833	4.4226	-25.979
0.770	25.85	100.2660	4.4218	-25.960
0.803	26.04	100.2493	4.4211	-25.943
0.837	26.25	100.2334	4.4204	-25.920
0.870	26.46	100.2183	4.4197	-25.894
0.903	26.67	100.2041	4.4191	-25.860
0.937	26.90	100.1907	4.4185	-25.819
0.970	27.13	100.1780	4.4179	-25.768
1.003	27.37	100.1659	4.4174	-25.707
1.037	27.62	100.1545	4.4169	-25.633
1.070	27.87	100.1436	4.4164	-25.551
1.103	28.13	100.1330	4.4160	-25.464
1.137	28.40	100.1226	4.4155	-25.360
1.170	28.68	100.1121	4.4150	-25.243
1.203	28.97	100.1017	4.4146	-25.114
1.237	29.25	100.0912	4.4141	-24.975
1.270	29.55	100.0806	4.4136	-24.832
1.303	29.85	100.0698	4.4132	-24.681
1.337	30.16	100.0587	4.4127	-24.516
1.370	30.47	100.0472	4.4122	-24.346
1.403	30.79	100.0353	4.4116	-24.168
1.437	31.11	100.0232	4.4111	-23.986
1.470	31.44	100.0108	4.4106	-23.795
1.503	31.77	99.9980	4.4100	-23.594
1.537	32.11	99.9849	4.4094	-23.391
1.570	32.45	99.9715	4.4088	-23.181
1.603	32.80	99.9579	4.4082	-22.964
1.637	33.14	99.9439	4.4076	-22.745
1.670	33.50	99.9297	4.4070	-22.521
1.703	33.85	99.9152	4.4064	-22.292
1.737	34.20	99.9006	4.4057	-22.060
1.770	34.56	99.8856	4.4050	-21.822
1.803	34.93	99.8703	4.4044	-21.580
1.837	35.29	99.8546	4.4037	-21.336
1.870	35.66	99.8387	4.4030	-21.090
1.903	36.02	99.8227	4.4023	-20.839
1.937	36.39	99.8063	4.4015	-20.586
1.970	36.77	99.7897	4.4008	-20.329
2.003	37.14	99.7728	4.4001	-20.067
2.037	37.51	99.7557	4.3993	-19.805
2.070	37.88	99.7382	4.3985	-19.544
2.103	38.26	99.7204	4.3978	-19.281
2.137	38.63	99.7024	4.3970	-19.018
2.170	39.01	99.6840	4.3962	-18.754
2.203	39.38	99.6652	4.3953	-18.488
2.237	39.76	99.6461	4.3945	-18.221
2.270	40.14	99.6269	4.3936	-17.954
2.303	40.51	99.6075	4.3928	-17.687
2.337	40.89	99.5879	4.3919	-17.421
2.370	41.26	99.5679	4.3910	-17.154
2.403	41.64	99.5477	4.3901	-16.886
2.437	42.01	99.5272	4.3892	-16.618
2.470	42.38	99.5065	4.3883	-16.349
2.503	42.76	99.4854	4.3874	-16.080
2.537	43.13	99.4640	4.3864	-15.814
2.570	43.50	99.4423	4.3855	-15.550
2.603	43.87	99.4205	4.3845	-15.286
2.637	44.24	99.3983	4.3836	-15.023
2.670	44.62	99.3759	4.3826	-14.760
2.703	44.98	99.3532	4.3816	-14.503
2.737	45.35	99.3301	4.3805	-14.243
2.770	45.72	99.3068	4.3795	-13.983
2.803	46.08	99.2831	4.3785	-13.726
2.837	46.45	99.2592	4.3774	-13.472
2.870	46.81	99.2351	4.3764	-13.224
2.903	47.17	99.2107	4.3753	-12.975
2.937	47.54	99.1861	4.3742	-12.728
2.970	47.90	99.1612	4.3731	-12.478
3.003	48.26	99.1361	4.3720	-12.229
3.037	48.62	99.1109	4.3709	-11.987
3.070	48.98	99.0854	4.3698	-11.747
3.103	49.33	99.0597	4.3686	-11.509
3.137	49.69	99.0339	4.3675	-11.271
3.170	50.04	99.0079	4.3663	-11.036
3.203	50.39	98.9817	4.3652	-10.801
3.237	50.75	98.9554	4.3640	-10.571
3.270	51.10	98.9289	4.3629	-10.343
3.303	51.45	98.9023	4.3617	-10.119
3.337	51.80	98.8755	4.3605	-9.895
3.370	52.15	98.8487	4.3593	-9.673
3.403	52.50	98.8217	4.3581	-9.452
3.437	52.85	98.7948	4.3569	-9.234
3.470	53.20	98.7677	4.3557	-9.017
3.503	53.54	98.7406	4.3545	-8.804
3.537	53.89	98.7134	4.3533	-8.593
3.570	54.24	98.6862	4.3521	-8.381
3.603	54.58	98.6588	4.3509	-8.174
3.637	54.93	98.6313	4.3497	-7.965
3.670	55.27	98.6040	4.3485	-7.758
3.703	55.61	98.5767	4.3473	-7.556
3.737	55.96	98.5494	4.3461	-7.357
3.770	56.30	98.5220	4.3449	-7.159
3.803	56.64	98.4947	4.3437	-6.961
3.837	56.98	98.4675	4.3425	-6.763
3.870	57.33	98.4405	4.3413	-6.567
3.903	57.67	98.4136	4.3401	-6.373
3.937	58.01	98.3867	4.3389	-6.184
3.970	58.35	98.3598	4.3378	-5.993
4.003	58.69	98.3329	4.3366	-5.803
4.037	59.03	98.3061	4.3354	-5.615
4.070	59.37	98.2795	4.3342	-5.432
4.103	59.71	98.2530	4.3330	-5.253
4.137	60.05	98.2266	4.3319	-5.072
4.170	60.39	98.2004	4.3307	-4.892
4.203	60.73	98.1744	4.3296	-4.710
4.237	61.07	98.1486	4.3284	-4.529
4.270	61.41	98.1230	4.3273	-4.357
4.303	61.75	98.0976	4.3262	-4.186
4.337	62.09	98.0724	4.3251	-4.014
4.370	62.43	98.0476	4.3240	-3.839
4.403	62.77	98.0230	4.3229	-3.670
4.437	63.11	97.9986	4.3218	-3.501
4.470	63.45	97.9744	4.3208	-3.336
4.503	63.79	97.9505	4.3197	-3.173
4.537	64.13	97.9268	4.3187	-3.010
4.570	64.47	97.9033	4.3176	-2.847
4.603	64.81	97.8802	4.3166	-2.683
4.637	65.15	97.8573	4.3156	-2.520
4.670	65.49	97.8346	4.3146	-2.362
4.703	65.83	97.8122	4.3136	-2.204
4.737	66.17	97.7901	4.3126	-2.046
4.770	66.51	97.7684	4.3117	-1.890
4.803	66.86	97.7471	4.3107	-1.736
4.837	67.20	97.7263	4.3098	-1.585
4.870	67.54	97.7056	4.3089	-1.434
4.903	67.88	97.6852	4.3080	-1.285
4.937	68.22	97.6650	4.3071	-1.135
4.970	68.56	97.6451	4.3062	-0.986
5.003	68.91	97.6255	4.3054	-0.840
5.037	69.25	97.6060	4.3045	-0.693
5.070	69.59	97.5869	4.3037	-0.551
5.103	69.93	97.5681	4.3028	-0.408
5.137	70.28	97.5496	4.3020	-0.267
5.170	70.62	97.5314	4.3012	-0.127
5.203	70.96	97.5135	4.3004	0.015
5.237	71.31	97.4959	4.2997	0.159
5.270	71.65	97.4786	4.2989	0.297
5.303	71.99	97.4615	4.2981	0.431
5.337	72.34	97.4446	4.2974	0.564
5.370	72.68	97.4282	4.2967	0.695
5.403	73.02	97.4121	4.2960	0.821
5.437	73.37	97.3965	4.2953	0.947
5.470	73.71	97.3811	4.2946	1.078
5.503	74.06	97.3661	4.2939	1.211
5.537	74.40	97.3514	4.2933	1.342
5.570	74.75	97.3369	4.2926	1.470
5.603	75.09	97.3226	4.2920	1.590
5.637	75.44	97.3086	4.2914	1.711
5.670	75.78	97.2950	4.2908	1.835
5.703	76.13	97.2815	4.2902	1.954
5.737	76.47	97.2684	4.2896	2.074
5.770	76.82	97.2557	4.2891	2.191
5.803	77.17	97.2433	4.2885	2.305
5.837	77.51	97.2311	4.2880	2.415
5.870	77.86	97.2192	4.2875	2.527
5.903	78.20	97.2075	4.2869	2.636
5.937	78.55	97.1962	4.2864	2.750
5.970	78.90	97.1850	4.2859	2.859
6.003	79.24	97.1740	4.2855	2.967
6.037	79.59	97.1633	4.2850	3.075
6.070	79.94	97.1529	4.2845	3.186
6.103	80.28	97.1428	4.2841	3.291
6.137	80.63	97.1329	4.2836	3.395
6.170	80.98	97.1233	4.2832	3.494
6.203	81.32	97.1140	4.2828	3.594
6.237	81.67	97.1050	4.2824	3.691
6.270	82.02	97.0961	4.2820	3.790
6.303	82.36	97.0876	4.2816	3.889
6.337	82.71	97.0792	4.2813	3.984
6.370	83.06	97.0711	4.2809	4.077
6.403	83.40	97.0633	4.2806	4.173
6.437	83.75	97.0556	4.2802	4.263
6.470	84.10	97.0482	4.2799	4.351
6.503	84.44	97.0409	4.2796	4.441
6.537	84.79	97.0338	4.2793	4.534
6.570	85.14	97.0269	4.2790	4.625
6.603	85.48	97.0203	4.2787	4.711
[...]
95.237	950.22	0.2652	0.0117	119.766
95.278	950.22	0.2649	0.0117	119.797
95.320	950.22	0.2645	0.0117	119.831
95.362	950.22	0.2640	0.0116	119.861
95.403	950.23	0.2635	0.0116	119.895
95.445	950.23	0.2630	0.0116	119.927
95.487	950.23	0.2627	0.0116	119.951
95.528	950.23	0.2624	0.0116	119.971
95.570	950.23	0.2621	0.0116	119.989
95.612	950.23	0.2619	0.0115	120.003
95.653	950.24	0.2615	0.0115	120.018
95.695	950.24	0.2610	0.0115	120.034
95.737	950.24	0.2606	0.0115	120.047
95.778	950.24	0.2603	0.0115	120.062
95.820	950.24	0.2601	0.0115	120.077
95.862	950.24	0.2598	0.0115	120.092
95.903	950.24	0.2594	0.0114	120.108
95.945	950.25	0.2590	0.0114	120.127
95.987	950.25	0.2586	0.0114	120.147
96.028	950.25	0.2583	0.0114	120.167
96.070	950.25	0.2580	0.0114	120.185
96.112	950.25	0.2576	0.0114	120.198
96.153	950.25	0.2573	0.0113	120.208
96.195	950.25	0.2571	0.0113	120.220
96.237	950.26	0.2567	0.0113	120.236
96.278	950.26	0.2564	0.0113	120.254
96.320	950.26	0.2561	0.0113	120.271
96.362	950.26	0.2556	0.0113	120.287
96.403	950.26	0.2551	0.0113	120.300
96.445	950.26	0.2546	0.0112	120.314
96.487	950.26	0.2542	0.0112	120.326
96.528	950.26	0.2538	0.0112	120.338
96.570	950.26	0.2533	0.0112	120.352
96.612	950.26	0.2528	0.0111	120.368
96.653	950.26	0.2525	0.0111	120.382
96.695	950.26	0.2521	0.0111	120.395
96.737	950.27	0.2518	0.0111	120.406
96.778	950.27	0.2514	0.0111	120.416
96.820	950.27	0.2510	0.0111	120.424
96.862	950.27	0.2508	0.0111	120.429
96.903	950.27	0.2505	0.0110	120.434
96.945	950.27	0.2501	0.0110	120.440
96.987	950.27	0.2496	0.0110	120.447
97.028	950.27	0.2492	0.0110	120.456
97.070	950.27	0.2488	0.0110	120.467
97.112	950.27	0.2483	0.0109	120.475
97.153	950.27	0.2478	0.0109	120.482
97.195	950.28	0.2473	0.0109	120.491
97.237	950.28	0.2470	0.0109	120.502
97.278	950.28	0.2468	0.0109	120.511
97.320	950.28	0.2466	0.0109	120.518
97.362	950.28	0.2462	0.0109	120.525
97.403	950.28	0.2458	0.0108	120.529
97.445	950.28	0.2454	0.0108	120.531
97.487	950.28	0.2450	0.0108	120.531
97.528	950.28	0.2447	0.0108	120.530
97.570	950.28	0.2443	0.0108	120.530
97.612	950.28	0.2440	0.0108	120.531
97.653	950.28	0.2436	0.0107	120.535
97.695	950.28	0.2432	0.0107	120.541
97.737	950.28	0.2428	0.0107	120.547
97.778	950.28	0.2424	0.0107	120.551
97.820	950.28	0.2418	0.0107	120.552
97.862	950.29	0.2414	0.0106	120.554
97.903	950.29	0.2409	0.0106	120.559
97.945	950.29	0.2405	0.0106	120.567
97.987	950.29	0.2401	0.0106	120.573
98.028	950.29	0.2396	0.0106	120.577
98.070	950.29	0.2391	0.0105	120.583
98.112	950.29	0.2386	0.0105	120.589
98.153	950.29	0.2382	0.0105	120.594
98.195	950.29	0.2379	0.0105	120.597
98.237	950.29	0.2376	0.0105	120.603
98.278	950.29	0.2372	0.0105	120.609
98.320	950.29	0.2369	0.0104	120.611
98.362	950.29	0.2365	0.0104	120.613
98.403	950.29	0.2360	0.0104	120.614
98.445	950.29	0.2356	0.0104	120.614
98.487	950.29	0.2352	0.0104	120.612
98.528	950.29	0.2348	0.0104	120.611
98.570	950.29	0.2343	0.0103	120.611
98.612	950.29	0.2338	0.0103	120.614
98.653	950.29	0.2334	0.0103	120.618
98.695	950.29	0.2331	0.0103	120.621
98.737	950.29	0.2329	0.0103	120.622
98.778	950.29	0.2325	0.0103	120.621
98.820	950.29	0.2321	0.0102	120.624
98.862	950.29	0.2316	0.0102	120.627
98.903	950.29	0.2310	0.0102	120.630
98.945	950.29	0.2305	0.0102	120.634
98.987	950.29	0.2301	0.0101	120.640
99.028	950.29	0.2297	0.0101	120.646
99.070	950.30	0.2294	0.0101	120.649
99.112	950.30	0.2290	0.0101	120.651
99.153	950.30	0.2285	0.0101	120.652
99.195	950.30	0.2280	0.0101	120.653
99.237	950.30	0.2275	0.0100	120.656
99.278	950.30	0.2272	0.0100	120.659
99.320	950.30	0.2269	0.0100	120.662
99.362	950.30	0.2266	0.0100	120.665
99.403		0.2262	0.0100
99.437		0.2261	0.0100