Folder: tga_data_analysis/PSO Kinetics/data (part 2)

File: softwood-5Kmin_3.txt
Filename	softwood-5Kmin_3
Instrument name	0650-0369 (192.168.1.2)
Operator	ca527
rundate	1/10/2023
Sample name	softwood-5Kmin_3
proceduresegments	Select Gas: Gas 1 ; Ramp 10.00 °C/min to 110.00 °C; Isothermal 30.0 min; Ramp 5.00 °C/min to 900.00 °C; Isothermal 30.0 min; Select Gas: Gas 2 ; Ramp 10.00 °C/min to 950.00 °C; Isothermal 10.0 min; Data Off ; Equilibrate 30.00 °C
[step]
Ramp 10.00 °C/min to 110.00 °C
Time	Temperature	Weight	Weight	Heat Flow
min	°C	%	mg	mW
0.003		99.9950	3.3248
0.037		99.9925	3.3248
0.070	22.15	100.0158	3.3255	-25.946
0.103	22.30	100.0125	3.3254	-25.858
0.137	22.45	99.9973	3.3249	-25.779
0.170	22.60	99.9811	3.3244	-25.709
0.203	22.75	99.9640	3.3238	-25.643
0.237	22.89	99.9461	3.3232	-25.579
0.270	23.03	99.9273	3.3226	-25.517
0.303	23.17	99.9073	3.3219	-25.460
0.337	23.31	99.8857	3.3212	-25.403
0.370	23.45	99.8621	3.3204	-25.350
0.403	23.59	99.8368	3.3196	-25.297
0.437	23.72	99.8100	3.3187	-25.250
0.470	23.86	99.7815	3.3177	-25.207
0.503	24.01	99.7514	3.3167	-25.168
0.537	24.15	99.7191	3.3157	-25.128
0.570	24.31	99.6849	3.3145	-25.097
0.603	24.46	99.6490	3.3133	-25.070
0.637	24.62	99.6118	3.3121	-25.043
0.670	24.79	99.5736	3.3108	-25.016
0.703	24.97	99.5350	3.3095	-24.995
0.737	25.15	99.4963	3.3083	-24.977
0.770	25.34	99.4579	3.3070	-24.962
0.803	25.53	99.4201	3.3057	-24.942
0.837	25.73	99.3832	3.3045	-24.916
0.870	25.94	99.3473	3.3033	-24.886
0.903	26.15	99.3126	3.3022	-24.848
0.937	26.37	99.2789	3.3010	-24.803
0.970	26.60	99.2466	3.3000	-24.752
1.003	26.83	99.2155	3.2989	-24.687
1.037	27.07	99.1854	3.2979	-24.608
1.070	27.32	99.1562	3.2970	-24.524
1.103	27.58	99.1277	3.2960	-24.429
1.137	27.84	99.0997	3.2951	-24.315
1.170	28.12	99.0722	3.2942	-24.190
1.203	28.39	99.0451	3.2933	-24.056
1.237	28.68	99.0182	3.2924	-23.912
1.270	28.97	98.9913	3.2915	-23.754
1.303	29.26	98.9643	3.2906	-23.581
1.337	29.57	98.9370	3.2897	-23.401
1.370	29.87	98.9095	3.2888	-23.213
1.403	30.19	98.8818	3.2878	-23.020
1.437	30.51	98.8538	3.2869	-22.811
1.470	30.83	98.8255	3.2860	-22.592
1.503	31.16	98.7969	3.2850	-22.366
1.537	31.49	98.7678	3.2840	-22.136
1.570	31.83	98.7384	3.2831	-21.899
1.603	32.17	98.7086	3.2821	-21.655
1.637	32.52	98.6784	3.2811	-21.406
1.670	32.86	98.6479	3.2801	-21.154
1.703	33.21	98.6174	3.2790	-20.896
1.737	33.57	98.5868	3.2780	-20.633
1.770	33.92	98.5559	3.2770	-20.368
1.803	34.28	98.5248	3.2760	-20.101
1.837	34.64	98.4933	3.2749	-19.831
1.870	35.01	98.4617	3.2739	-19.553
1.903	35.37	98.4299	3.2728	-19.274
1.937	35.74	98.3979	3.2717	-18.993
1.970	36.11	98.3658	3.2707	-18.712
2.003	36.48	98.3333	3.2696	-18.427
2.037	36.85	98.3004	3.2685	-18.143
2.070	37.22	98.2673	3.2674	-17.858
2.103	37.60	98.2340	3.2663	-17.568
2.137	37.97	98.2004	3.2652	-17.273
2.170	38.35	98.1664	3.2640	-16.982
2.203	38.72	98.1323	3.2629	-16.692
2.237	39.10	98.0980	3.2618	-16.399
2.270	39.47	98.0636	3.2606	-16.105
2.303	39.85	98.0289	3.2595	-15.814
2.337	40.22	97.9941	3.2583	-15.522
2.370	40.60	97.9591	3.2571	-15.229
2.403	40.97	97.9238	3.2560	-14.940
2.437	41.35	97.8885	3.2548	-14.648
2.470	41.73	97.8529	3.2536	-14.356
2.503	42.10	97.8172	3.2524	-14.065
2.537	42.47	97.7814	3.2512	-13.777
2.570	42.85	97.7453	3.2500	-13.490
2.603	43.22	97.7091	3.2488	-13.204
2.637	43.59	97.6728	3.2476	-12.919
2.670	43.96	97.6364	3.2464	-12.635
2.703	44.33	97.6001	3.2452	-12.350
2.737	44.70	97.5635	3.2440	-12.066
2.770	45.07	97.5268	3.2428	-11.790
2.803	45.44	97.4900	3.2416	-11.515
2.837	45.80	97.4531	3.2403	-11.241
2.870	46.17	97.4162	3.2391	-10.967
2.903	46.54	97.3792	3.2379	-10.696
2.937	46.90	97.3423	3.2366	-10.420
2.970	47.27	97.3053	3.2354	-10.149
3.003	47.63	97.2683	3.2342	-9.879
3.037	47.99	97.2314	3.2330	-9.615
3.070	48.35	97.1946	3.2317	-9.352
3.103	48.71	97.1577	3.2305	-9.095
3.137	49.06	97.1209	3.2293	-8.839
3.170	49.42	97.0842	3.2281	-8.585
3.203	49.78	97.0476	3.2268	-8.328
3.237	50.13	97.0113	3.2256	-8.080
3.270	50.49	96.9750	3.2244	-7.833
3.303	50.84	96.9389	3.2232	-7.584
3.337	51.20	96.9030	3.2220	-7.333
3.370	51.55	96.8672	3.2208	-7.087
3.403	51.90	96.8315	3.2197	-6.847
3.437	52.25	96.7961	3.2185	-6.610
3.470	52.60	96.7609	3.2173	-6.372
3.503	52.95	96.7259	3.2161	-6.132
3.537	53.29	96.6912	3.2150	-5.893
3.570	53.64	96.6568	3.2138	-5.661
3.603	53.99	96.6227	3.2127	-5.436
3.637	54.34	96.5888	3.2116	-5.210
3.670	54.68	96.5552	3.2105	-4.984
3.703	55.03	96.5218	3.2094	-4.759
3.737	55.37	96.4887	3.2083	-4.537
3.770	55.72	96.4558	3.2072	-4.318
3.803	56.06	96.4232	3.2061	-4.098
3.837	56.41	96.3909	3.2050	-3.883
3.870	56.75	96.3588	3.2039	-3.667
3.903	57.09	96.3270	3.2029	-3.453
3.937	57.44	96.2958	3.2018	-3.242
3.970	57.78	96.2649	3.2008	-3.034
4.003	58.12	96.2346	3.1998	-2.825
4.037	58.46	96.2046	3.1988	-2.616
4.070	58.81	96.1751	3.1978	-2.412
4.103	59.15	96.1460	3.1969	-2.210
4.137	59.49	96.1173	3.1959	-2.010
4.170	59.83	96.0890	3.1950	-1.807
4.203	60.17	96.0611	3.1940	-1.609
4.237	60.51	96.0335	3.1931	-1.415
4.270	60.85	96.0062	3.1922	-1.223
4.303	61.20	95.9792	3.1913	-1.031
4.337	61.54	95.9527	3.1904	-0.841
4.370	61.88	95.9266	3.1896	-0.655
4.403	62.22	95.9009	3.1887	-0.466
4.437	62.56	95.8755	3.1879	-0.280
4.470	62.90	95.8505	3.1870	-0.098
4.503	63.24	95.8259	3.1862	0.081
4.537	63.58	95.8016	3.1854	0.262
4.570	63.92	95.7778	3.1846	0.443
4.603	64.27	95.7545	3.1838	0.623
4.637	64.61	95.7317	3.1831	0.797
4.670	64.95	95.7094	3.1823	0.967
4.703	65.29	95.6874	3.1816	1.140
4.737	65.63	95.6657	3.1809	1.314
4.770	65.97	95.6445	3.1802	1.485
4.803	66.31	95.6237	3.1795	1.651
4.837	66.66	95.6034	3.1788	1.818
4.870	67.00	95.5835	3.1782	1.983
4.903	67.34	95.5640	3.1775	2.144
4.937	67.68	95.5449	3.1769	2.306
4.970	68.02	95.5263	3.1763	2.467
5.003	68.37	95.5080	3.1756	2.623
5.037	68.71	95.4899	3.1750	2.778
5.070	69.05	95.4722	3.1745	2.931
5.103	69.40	95.4549	3.1739	3.083
5.137	69.74	95.4380	3.1733	3.232
5.170	70.08	95.4217	3.1728	3.380
5.203	70.43	95.4058	3.1723	3.529
5.237	70.77	95.3902	3.1717	3.677
5.270	71.12	95.3749	3.1712	3.823
5.303	71.46	95.3600	3.1707	3.966
5.337	71.80	95.3455	3.1702	4.108
5.370	72.15	95.3312	3.1698	4.248
5.403	72.49	95.3174	3.1693	4.391
5.437	72.84	95.3039	3.1689	4.527
5.470	73.18	95.2907	3.1684	4.661
5.503	73.53	95.2777	3.1680	4.793
5.537	73.87	95.2649	3.1676	4.922
5.570	74.22	95.2525	3.1672	5.052
5.603	74.56	95.2404	3.1668	5.181
5.637	74.91	95.2287	3.1664	5.312
5.670	75.25	95.2174	3.1660	5.435
5.703	75.60	95.2065	3.1656	5.556
5.737	75.94	95.1959	3.1653	5.676
5.770	76.29	95.1855	3.1649	5.798
5.803	76.64	95.1754	3.1646	5.918
5.837	76.98	95.1655	3.1643	6.037
5.870	77.33	95.1560	3.1639	6.154
5.903	77.67	95.1468	3.1636	6.268
5.937	78.02	95.1379	3.1633	6.382
5.970	78.37	95.1291	3.1631	6.495
6.003	78.71	95.1206	3.1628	6.606
6.037	79.06	95.1124	3.1625	6.716
6.070	79.41	95.1045	3.1622	6.823
6.103	79.75	95.0968	3.1620	6.927
6.137	80.10	95.0894	3.1617	7.029
6.170	80.45	95.0822	3.1615	7.133
6.203	80.79	95.0752	3.1613	7.233
6.237	81.14	95.0684	3.1610	7.331
6.270	81.48	95.0619	3.1608	7.429
6.303	81.83	95.0556	3.1606	7.523
6.337	82.18	95.0495	3.1604	7.615
6.370	82.53	95.0435	3.1602	7.710
6.403	82.87	95.0378	3.1600	7.802
6.437	83.22	95.0325	3.1598	7.894
6.470	83.57	95.0274	3.1597	7.981
6.503	83.91	95.0225	3.1595	8.065
6.537	84.26	95.0177	3.1593	8.154
6.570	84.61	95.0129	3.1592	8.241
6.603	84.95	95.0083	3.1590	8.325
6.637	85.30	95.0038	3.1589	8.402
6.670	85.65	94.9996	3.1587	8.481
[...]
237.645	949.90	0.8127	0.0270	106.304
237.687	949.90	0.8122	0.0270	106.331
237.728	949.91	0.8117	0.0270	106.359
237.770	949.91	0.8114	0.0270	106.386
237.812	949.91	0.8113	0.0270	106.415
237.853	949.91	0.8110	0.0270	106.445
237.895	949.91	0.8105	0.0270	106.471
237.937	949.91	0.8100	0.0269	106.500
237.978	949.92	0.8095	0.0269	106.527
238.020	949.92	0.8093	0.0269	106.548
238.062	949.92	0.8090	0.0269	106.573
238.103	949.92	0.8089	0.0269	106.598
238.145	949.92	0.8087	0.0269	106.626
238.187	949.93	0.8084	0.0269	106.657
238.228	949.93	0.8081	0.0269	106.688
238.270	949.93	0.8076	0.0269	106.726
238.312	949.93	0.8071	0.0268	106.766
238.353	949.93	0.8068	0.0268	106.806
238.395	949.93	0.8066	0.0268	106.844
238.437	949.93	0.8064	0.0268	106.873
238.478	949.94	0.8063	0.0268	106.897
238.520	949.94	0.8060	0.0268	106.916
238.562	949.94	0.8056	0.0268	106.933
238.603	949.94	0.8053	0.0268	106.952
238.645	949.94	0.8049	0.0268	106.971
238.687	949.94	0.8044	0.0267	106.984
238.728	949.94	0.8039	0.0267	106.998
238.770	949.95	0.8036	0.0267	107.015
238.812	949.95	0.8032	0.0267	107.032
238.853	949.95	0.8028	0.0267	107.050
238.895	949.95	0.8024	0.0267	107.068
238.937	949.95	0.8020	0.0267	107.087
238.978	949.95	0.8017	0.0267	107.107
239.020	949.95	0.8014	0.0266	107.130
239.062	949.95	0.8011	0.0266	107.156
239.103	949.95	0.8008	0.0266	107.177
239.145	949.96	0.8004	0.0266	107.195
239.187	949.96	0.8000	0.0266	107.210
239.228	949.96	0.7994	0.0266	107.224
239.270	949.96	0.7990	0.0266	107.243
239.312	949.96	0.7984	0.0265	107.266
239.353	949.96	0.7978	0.0265	107.293
239.395	949.96	0.7973	0.0265	107.313
239.437	949.96	0.7970	0.0265	107.330
239.478	949.96	0.7967	0.0265	107.346
239.520	949.96	0.7962	0.0265	107.362
239.562	949.96	0.7957	0.0265	107.378
239.603	949.97	0.7953	0.0264	107.393
239.645	949.97	0.7949	0.0264	107.411
239.687	949.97	0.7947	0.0264	107.431
239.728	949.97	0.7945	0.0264	107.445
239.770	949.97	0.7942	0.0264	107.455
239.812	949.97	0.7938	0.0264	107.467
239.853	949.97	0.7933	0.0264	107.483
239.895	949.97	0.7928	0.0264	107.499
239.937	949.97	0.7924	0.0263	107.511
239.978	949.97	0.7920	0.0263	107.523
240.020	949.97	0.7915	0.0263	107.535
240.062	949.97	0.7910	0.0263	107.546
240.103	949.97	0.7907	0.0263	107.554
240.145	949.98	0.7904	0.0263	107.565
240.187	949.98	0.7900	0.0263	107.579
240.228	949.98	0.7894	0.0262	107.595
240.270	949.98	0.7890	0.0262	107.615
240.312	949.98	0.7887	0.0262	107.630
240.353	949.98	0.7884	0.0262	107.638
240.395	949.98	0.7881	0.0262	107.649
240.437	949.98	0.7877	0.0262	107.661
240.478	949.98	0.7873	0.0262	107.671
240.520	949.98	0.7870	0.0262	107.684
240.562	949.98	0.7866	0.0262	107.700
240.603	949.98	0.7861	0.0261	107.722
240.645	949.98	0.7856	0.0261	107.749
240.687	949.98	0.7853	0.0261	107.769
240.728	949.98	0.7852	0.0261	107.785
240.770	949.98	0.7850	0.0261	107.798
240.812	949.98	0.7848	0.0261	107.806
240.853	949.98	0.7844	0.0261	107.815
240.895	949.99	0.7838	0.0261	107.823
240.937	949.99	0.7833	0.0260	107.832
240.978	949.99	0.7827	0.0260	107.839
241.020	949.99	0.7823	0.0260	107.846
241.062	949.99	0.7817	0.0260	107.855
241.103	949.99	0.7813	0.0260	107.866
241.145	949.99	0.7810	0.0260	107.879
241.187	949.99	0.7807	0.0260	107.891
241.228	949.99	0.7804	0.0259	107.899
241.270	949.99	0.7800	0.0259	107.907
241.312	949.99	0.7796	0.0259	107.916
241.353	949.99	0.7790	0.0259	107.922
241.395	949.99	0.7784	0.0259	107.929
241.437	949.99	0.7778	0.0259	107.935
241.478	949.99	0.7775	0.0259	107.939
241.520	949.99	0.7770	0.0258	107.945
241.562	949.99	0.7767	0.0258	107.952
241.603	949.99	0.7764	0.0258	107.959
241.645	949.99	0.7759	0.0258	107.970
241.687		0.7754	0.0258
241.720		0.7751	0.0258

File: softwood-10Kmin_1.txt
Filename	softwood-10Kmin_1
Instrument name	0650-0369 (192.168.1.2)
Operator	ca527
rundate	1/9/2023
Sample name	softwood-10Kmin_1
proceduresegments	Select Gas: Gas 1 ; Ramp 10.00 °C/min to 110.00 °C; Isothermal 30.0 min; Ramp 10.00 °C/min to 900.00 °C; Isothermal 30.0 min; Select Gas: Gas 2 ; Ramp 10.00 °C/min to 950.00 °C; Isothermal 10.0 min; Data Off ; Equilibrate 30.00 °C
[step]
Ramp 10.00 °C/min to 110.00 °C
Time	Temperature	Weight	Weight	Heat Flow
min	°C	%	mg	mW
0.003		100.0411	4.3204
0.037		100.2291	4.3286
0.070	22.49	100.3106	4.3321	-27.949
0.103	22.64	100.2841	4.3309	-27.758
0.137	22.79	100.2492	4.3294	-27.574
0.170	22.94	100.2191	4.3281	-27.390
0.203	23.09	100.1924	4.3270	-27.213
0.237	23.23	100.1684	4.3259	-27.046
0.270	23.37	100.1467	4.3250	-26.882
0.303	23.51	100.1266	4.3241	-26.725
0.337	23.66	100.1076	4.3233	-26.575
0.370	23.80	100.0893	4.3225	-26.428
0.403	23.94	100.0717	4.3218	-26.286
0.437	24.08	100.0544	4.3210	-26.147
0.470	24.22	100.0372	4.3203	-26.014
0.503	24.37	100.0196	4.3195	-25.893
0.537	24.52	100.0015	4.3187	-25.779
0.570	24.68	99.9830	4.3179	-25.666
0.603	24.84	99.9642	4.3171	-25.559
0.637	25.01	99.9455	4.3163	-25.464
0.670	25.19	99.9269	4.3155	-25.373
0.703	25.37	99.9089	4.3147	-25.282
0.737	25.56	99.8917	4.3140	-25.192
0.770	25.75	99.8754	4.3133	-25.104
0.803	25.95	99.8601	4.3126	-25.012
0.837	26.16	99.8459	4.3120	-24.918
0.870	26.38	99.8327	4.3114	-24.825
0.903	26.60	99.8204	4.3109	-24.730
0.937	26.83	99.8091	4.3104	-24.628
0.970	27.06	99.7985	4.3100	-24.520
1.003	27.31	99.7886	4.3095	-24.408
1.037	27.56	99.7793	4.3091	-24.285
1.070	27.81	99.7703	4.3087	-24.153
1.103	28.08	99.7614	4.3084	-24.011
1.137	28.35	99.7527	4.3080	-23.866
1.170	28.63	99.7442	4.3076	-23.710
1.203	28.91	99.7356	4.3072	-23.545
1.237	29.21	99.7267	4.3069	-23.373
1.270	29.50	99.7177	4.3065	-23.194
1.303	29.81	99.7084	4.3061	-23.000
1.337	30.11	99.6988	4.3057	-22.801
1.370	30.43	99.6889	4.3052	-22.590
1.403	30.74	99.6789	4.3048	-22.375
1.437	31.07	99.6684	4.3043	-22.154
1.470	31.40	99.6577	4.3039	-21.928
1.503	31.73	99.6465	4.3034	-21.694
1.537	32.07	99.6352	4.3029	-21.453
1.570	32.41	99.6236	4.3024	-21.204
1.603	32.75	99.6117	4.3019	-20.953
1.637	33.10	99.5996	4.3014	-20.695
1.670	33.45	99.5872	4.3008	-20.432
1.703	33.81	99.5745	4.3003	-20.163
1.737	34.17	99.5615	4.2997	-19.889
1.770	34.53	99.5481	4.2992	-19.613
1.803	34.89	99.5344	4.2986	-19.332
1.837	35.26	99.5205	4.2980	-19.050
1.870	35.62	99.5064	4.2973	-18.769
1.903	35.99	99.4920	4.2967	-18.479
1.937	36.37	99.4773	4.2961	-18.187
1.970	36.74	99.4624	4.2954	-17.894
2.003	37.11	99.4471	4.2948	-17.599
2.037	37.49	99.4316	4.2941	-17.303
2.070	37.86	99.4160	4.2934	-17.006
2.103	38.24	99.4000	4.2928	-16.709
2.137	38.61	99.3839	4.2921	-16.414
2.170	38.99	99.3675	4.2914	-16.116
2.203	39.37	99.3509	4.2906	-15.822
2.237	39.75	99.3339	4.2899	-15.528
2.270	40.12	99.3168	4.2892	-15.234
2.303	40.50	99.2995	4.2884	-14.934
2.337	40.88	99.2820	4.2877	-14.637
2.370	41.26	99.2641	4.2869	-14.345
2.403	41.63	99.2460	4.2861	-14.058
2.437	42.01	99.2277	4.2853	-13.773
2.470	42.39	99.2093	4.2845	-13.483
2.503	42.76	99.1906	4.2837	-13.195
2.537	43.14	99.1717	4.2829	-12.909
2.570	43.51	99.1524	4.2821	-12.628
2.603	43.88	99.1328	4.2812	-12.349
2.637	44.25	99.1129	4.2804	-12.071
2.670	44.62	99.0927	4.2795	-11.791
2.703	44.99	99.0723	4.2786	-11.520
2.737	45.36	99.0516	4.2777	-11.248
2.770	45.73	99.0309	4.2768	-10.978
2.803	46.10	99.0099	4.2759	-10.714
2.837	46.46	98.9886	4.2750	-10.452
2.870	46.83	98.9670	4.2741	-10.189
2.903	47.19	98.9452	4.2731	-9.932
2.937	47.56	98.9232	4.2722	-9.682
2.970	47.92	98.9011	4.2712	-9.435
3.003	48.28	98.8787	4.2702	-9.185
3.037	48.64	98.8561	4.2693	-8.936
3.070	48.99	98.8333	4.2683	-8.691
3.103	49.35	98.8103	4.2673	-8.452
3.137	49.71	98.7871	4.2663	-8.216
3.170	50.06	98.7638	4.2653	-7.986
3.203	50.42	98.7403	4.2643	-7.757
3.237	50.77	98.7167	4.2632	-7.531
3.270	51.12	98.6929	4.2622	-7.309
3.303	51.47	98.6689	4.2612	-7.091
3.337	51.82	98.6449	4.2601	-6.873
3.370	52.17	98.6208	4.2591	-6.655
3.403	52.52	98.5965	4.2581	-6.439
3.437	52.87	98.5721	4.2570	-6.225
3.470	53.22	98.5476	4.2559	-6.015
3.503	53.56	98.5232	4.2549	-5.808
3.537	53.91	98.4987	4.2538	-5.610
3.570	54.25	98.4741	4.2528	-5.414
3.603	54.59	98.4494	4.2517	-5.218
3.637	54.94	98.4245	4.2506	-5.021
3.670	55.28	98.3995	4.2495	-4.827
3.703	55.62	98.3745	4.2485	-4.638
3.737	55.97	98.3496	4.2474	-4.448
3.770	56.31	98.3247	4.2463	-4.262
3.803	56.65	98.2998	4.2452	-4.076
3.837	56.99	98.2750	4.2442	-3.894
3.870	57.33	98.2503	4.2431	-3.715
3.903	57.67	98.2256	4.2420	-3.537
3.937	58.01	98.2011	4.2410	-3.361
3.970	58.35	98.1767	4.2399	-3.188
4.003	58.69	98.1524	4.2389	-3.019
4.037	59.03	98.1281	4.2378	-2.847
4.070	59.37	98.1040	4.2368	-2.677
4.103	59.70	98.0799	4.2357	-2.510
4.137	60.04	98.0560	4.2347	-2.346
4.170	60.38	98.0323	4.2337	-2.185
4.203	60.72	98.0088	4.2327	-2.027
4.237	61.06	97.9854	4.2317	-1.864
4.270	61.39	97.9621	4.2307	-1.703
4.303	61.73	97.9389	4.2297	-1.542
4.337	62.07	97.9160	4.2287	-1.385
4.370	62.41	97.8933	4.2277	-1.233
4.403	62.75	97.8707	4.2267	-1.080
4.437	63.08	97.8483	4.2257	-0.928
4.470	63.42	97.8261	4.2248	-0.779
4.503	63.76	97.8041	4.2238	-0.634
4.537	64.10	97.7823	4.2229	-0.489
4.570	64.44	97.7607	4.2220	-0.346
4.603	64.77	97.7395	4.2210	-0.202
4.637	65.11	97.7185	4.2201	-0.062
4.670	65.45	97.6978	4.2192	0.082
4.703	65.79	97.6773	4.2184	0.222
4.737	66.13	97.6570	4.2175	0.361
4.770	66.47	97.6368	4.2166	0.500
4.803	66.81	97.6169	4.2158	0.636
4.837	67.15	97.5974	4.2149	0.765
4.870	67.49	97.5781	4.2141	0.894
4.903	67.83	97.5591	4.2133	1.030
4.937	68.16	97.5404	4.2124	1.162
4.970	68.50	97.5220	4.2116	1.295
5.003	68.85	97.5038	4.2109	1.424
5.037	69.19	97.4858	4.2101	1.553
5.070	69.53	97.4681	4.2093	1.676
5.103	69.87	97.4509	4.2086	1.800
5.137	70.21	97.4338	4.2078	1.925
5.170	70.55	97.4170	4.2071	2.047
5.203	70.89	97.4004	4.2064	2.170
5.237	71.23	97.3841	4.2057	2.291
5.270	71.58	97.3682	4.2050	2.412
5.303	71.92	97.3525	4.2043	2.525
5.337	72.26	97.3372	4.2037	2.642
5.370	72.60	97.3223	4.2030	2.758
5.403	72.94	97.3079	4.2024	2.873
5.437	73.29	97.2940	4.2018	2.985
5.470	73.63	97.2803	4.2012	3.097
5.503	73.97	97.2667	4.2006	3.209
5.537	74.32	97.2533	4.2000	3.317
5.570	74.66	97.2404	4.1995	3.423
5.603	75.00	97.2281	4.1990	3.532
5.637	75.35	97.2157	4.1984	3.639
5.670	75.69	97.2032	4.1979	3.745
5.703	76.03	97.1909	4.1974	3.848
5.737	76.38	97.1793	4.1969	3.953
5.770	76.72	97.1683	4.1964	4.053
5.803	77.07	97.1578	4.1959	4.150
5.837	77.41	97.1471	4.1955	4.248
5.870	77.75	97.1363	4.1950	4.342
5.903	78.10	97.1258	4.1945	4.438
5.937	78.44	97.1157	4.1941	4.529
5.970	78.79	97.1057	4.1937	4.622
6.003	79.13	97.0956	4.1932	4.717
6.037	79.48	97.0856	4.1928	4.813
6.070	79.82	97.0763	4.1924	4.900
6.103	80.17	97.0670	4.1920	4.985
6.137	80.51	97.0573	4.1916	5.070
6.170	80.86	97.0475	4.1912	5.153
6.203	81.20	97.0381	4.1908	5.238
6.237	81.55	97.0292	4.1904	5.325
6.270	81.89	97.0211	4.1900	5.408
6.303	82.24	97.0135	4.1897	5.486
6.337	82.59	97.0064	4.1894	5.568
6.370	82.93	96.9994	4.1891	5.647
6.403	83.28	96.9921	4.1888	5.725
6.437	83.62	96.9846	4.1884	5.799
6.470	83.97	96.9775	4.1881	5.876
6.503	84.31	96.9710	4.1879	5.951
6.537	84.66	96.9649	4.1876	6.021
6.570	85.00	96.9593	4.1873	6.089
6.603	85.35	96.9537	4.1871	6.155
6.637	85.70	96.9476	4.1868	6.225
6.670	86.04	96.9410	4.1866	6.294
[...]
158.462	948.93	1.1500	0.0497	66.301
158.503	948.94	1.1496	0.0496	66.349
158.545	948.94	1.1492	0.0496	66.395
158.587	948.94	1.1488	0.0496	66.449
158.628	948.94	1.1484	0.0496	66.495
158.670	948.95	1.1482	0.0496	66.529
158.712	948.95	1.1480	0.0496	66.574
158.753	948.95	1.1479	0.0496	66.630
158.795	948.95	1.1477	0.0496	66.681
158.837	948.96	1.1473	0.0495	66.724
158.878	948.96	1.1469	0.0495	66.765
158.920	948.96	1.1467	0.0495	66.813
158.962	948.96	1.1463	0.0495	66.866
159.003	948.96	1.1458	0.0495	66.913
159.045	948.96	1.1454	0.0495	66.959
159.087	948.97	1.1451	0.0495	67.015
159.128	948.97	1.1449	0.0494	67.070
159.170	948.97	1.1445	0.0494	67.117
159.212	948.97	1.1441	0.0494	67.153
159.253	948.98	1.1437	0.0494	67.179
159.295	948.98	1.1433	0.0494	67.206
159.337	948.98	1.1430	0.0494	67.232
159.378	948.98	1.1427	0.0493	67.261
159.420	948.98	1.1424	0.0493	67.294
159.462	948.98	1.1422	0.0493	67.327
159.503	948.99	1.1420	0.0493	67.356
159.545	948.99	1.1417	0.0493	67.395
159.587	948.99	1.1413	0.0493	67.445
159.628	948.99	1.1410	0.0493	67.488
159.670	948.99	1.1407	0.0493	67.523
159.712	948.99	1.1403	0.0492	67.556
159.753	949.00	1.1400	0.0492	67.595
159.795	949.00	1.1396	0.0492	67.633
159.837	949.00	1.1393	0.0492	67.660
159.878	949.00	1.1390	0.0492	67.696
159.920	949.00	1.1387	0.0492	67.744
159.962	949.00	1.1383	0.0492	67.790
160.003	949.00	1.1378	0.0491	67.830
160.045	949.01	1.1372	0.0491	67.861
160.087	949.01	1.1367	0.0491	67.888
160.128	949.01	1.1363	0.0491	67.920
160.170	949.01	1.1359	0.0491	67.953
160.212	949.01	1.1355	0.0490	67.983
160.253	949.01	1.1352	0.0490	68.012
160.295	949.02	1.1348	0.0490	68.039
160.337	949.02	1.1344	0.0490	68.072
160.378	949.02	1.1340	0.0490	68.114
160.420	949.02	1.1336	0.0490	68.153
160.462	949.02	1.1333	0.0489	68.186
160.503	949.02	1.1330	0.0489	68.210
160.545	949.02	1.1328	0.0489	68.235
160.587	949.02	1.1325	0.0489	68.264
160.628	949.02	1.1320	0.0489	68.296
160.670	949.03	1.1316	0.0489	68.327
160.712	949.03	1.1311	0.0488	68.351
160.753	949.03	1.1307	0.0488	68.369
160.795	949.03	1.1304	0.0488	68.388
160.837	949.03	1.1301	0.0488	68.411
160.878	949.03	1.1297	0.0488	68.433
160.920	949.03	1.1295	0.0488	68.453
160.962	949.03	1.1292	0.0488	68.475
161.003	949.03	1.1289	0.0488	68.500
161.045	949.04	1.1285	0.0487	68.527
161.087	949.04	1.1281	0.0487	68.552
161.128	949.04	1.1277	0.0487	68.579
161.170	949.04	1.1275	0.0487	68.610
161.212	949.04	1.1272	0.0487	68.639
161.253	949.04	1.1269	0.0487	68.673
161.295	949.04	1.1266	0.0487	68.713
161.337	949.04	1.1263	0.0486	68.741
161.378	949.04	1.1260	0.0486	68.764
161.420	949.04	1.1258	0.0486	68.788
161.462	949.04	1.1255	0.0486	68.813
161.503	949.05	1.1251	0.0486	68.839
161.545	949.05	1.1247	0.0486	68.868
161.587	949.05	1.1244	0.0486	68.891
161.628	949.05	1.1241	0.0485	68.915
161.670	949.05	1.1239	0.0485	68.944
161.712	949.05	1.1235	0.0485	68.969
161.753	949.05	1.1230	0.0485	68.990
161.795	949.05	1.1226	0.0485	69.015
161.837	949.05	1.1223	0.0485	69.040
161.878	949.06	1.1219	0.0485	69.055
161.920	949.06	1.1215	0.0484	69.072
161.962	949.06	1.1212	0.0484	69.098
162.003	949.06	1.1209	0.0484	69.122
162.045	949.06	1.1206	0.0484	69.148
162.087	949.06	1.1203	0.0484	69.176
162.128	949.06	1.1199	0.0484	69.197
162.170	949.06	1.1195	0.0483	69.216
162.212	949.06	1.1191	0.0483	69.239
162.253	949.06	1.1187	0.0483	69.260
162.295	949.06	1.1184	0.0483	69.273
162.337	949.06	1.1181	0.0483	69.285
162.378	949.06	1.1178	0.0483	69.298
162.420	949.07	1.1175	0.0483	69.318
162.462	949.07	1.1171	0.0482	69.340
162.503	949.07	1.1168	0.0482	69.359
162.545	949.07	1.1163	0.0482	69.377
162.587	949.07	1.1159	0.0482	69.394
162.628		1.1154	0.0482
162.662		1.1150	0.0482