Folder: tga_data_analysis/PSO Kinetics/data (part 4)

File: softwood-20Kmin_1.txt
Filename	softwood-20Kmin_1
Instrument name	0650-0369 (192.168.1.2)
Operator	ca527
rundate	1/8/2023
Sample name	softwood-20Kmin_1
proceduresegments	Select Gas: Gas 1 ; Ramp 10.00 °C/min to 110.00 °C; Isothermal 30.0 min; Ramp 20.00 °C/min to 900.00 °C; Isothermal 30.0 min; Select Gas: Gas 2 ; Ramp 10.00 °C/min to 950.00 °C; Isothermal 10.0 min; Data Off ; Equilibrate 30.00 °C
[step]
Ramp 10.00 °C/min to 110.00 °C
Time	Temperature	Weight	Weight	Heat Flow
min	°C	%	mg	mW
0.003		100.0304	4.1507
0.037		100.1668	4.1564
0.070	22.68	100.2092	4.1582	-27.912
0.103	22.82	100.2163	4.1585	-27.773
0.137	22.96	100.2131	4.1583	-27.641
0.170	23.10	100.2081	4.1581	-27.513
0.203	23.23	100.2025	4.1579	-27.392
0.237	23.37	100.1965	4.1576	-27.271
0.270	23.50	100.1898	4.1574	-27.158
0.303	23.63	100.1821	4.1570	-27.048
0.337	23.76	100.1732	4.1567	-26.939
0.370	23.89	100.1634	4.1563	-26.835
0.403	24.03	100.1526	4.1558	-26.735
0.437	24.16	100.1404	4.1553	-26.637
0.470	24.30	100.1267	4.1547	-26.550
0.503	24.44	100.1115	4.1541	-26.471
0.537	24.59	100.0950	4.1534	-26.393
0.570	24.75	100.0773	4.1527	-26.320
0.603	24.90	100.0587	4.1519	-26.257
0.637	25.07	100.0394	4.1511	-26.202
0.670	25.24	100.0198	4.1503	-26.151
0.703	25.42	100.0004	4.1495	-26.099
0.737	25.60	99.9816	4.1487	-26.049
0.770	25.80	99.9633	4.1480	-26.004
0.803	25.99	99.9457	4.1472	-25.964
0.837	26.20	99.9290	4.1465	-25.921
0.870	26.41	99.9134	4.1459	-25.870
0.903	26.63	99.8990	4.1453	-25.811
0.937	26.86	99.8856	4.1447	-25.746
0.970	27.10	99.8727	4.1442	-25.676
1.003	27.34	99.8608	4.1437	-25.592
1.037	27.59	99.8494	4.1432	-25.497
1.070	27.85	99.8383	4.1428	-25.395
1.103	28.11	99.8276	4.1423	-25.284
1.137	28.38	99.8172	4.1419	-25.156
1.170	28.66	99.8067	4.1415	-25.014
1.203	28.95	99.7964	4.1410	-24.866
1.237	29.24	99.7858	4.1406	-24.708
1.270	29.54	99.7749	4.1401	-24.538
1.303	29.84	99.7635	4.1397	-24.359
1.337	30.15	99.7515	4.1392	-24.173
1.370	30.47	99.7392	4.1387	-23.980
1.403	30.79	99.7267	4.1381	-23.774
1.437	31.11	99.7140	4.1376	-23.564
1.470	31.44	99.7036	4.1372	-23.348
1.503	31.78	99.6958	4.1369	-23.128
1.537	32.11	99.6865	4.1365	-22.897
1.570	32.46	99.6719	4.1359	-22.663
1.603	32.80	99.6562	4.1352	-22.421
1.637	33.15	99.6404	4.1346	-22.181
1.670	33.51	99.6244	4.1339	-21.935
1.703	33.86	99.6083	4.1332	-21.684
1.737	34.22	99.5920	4.1325	-21.427
1.770	34.58	99.5755	4.1319	-21.167
1.803	34.94	99.5586	4.1312	-20.903
1.837	35.31	99.5417	4.1305	-20.635
1.870	35.68	99.5245	4.1297	-20.367
1.903	36.05	99.5074	4.1290	-20.097
1.937	36.42	99.4900	4.1283	-19.827
1.970	36.79	99.4724	4.1276	-19.555
2.003	37.17	99.4543	4.1268	-19.279
2.037	37.54	99.4360	4.1261	-19.005
2.070	37.92	99.4173	4.1253	-18.730
2.103	38.29	99.3984	4.1245	-18.454
2.137	38.67	99.3794	4.1237	-18.173
2.170	39.04	99.3602	4.1229	-17.890
2.203	39.42	99.3410	4.1221	-17.609
2.237	39.80	99.3216	4.1213	-17.327
2.270	40.17	99.3019	4.1205	-17.048
2.303	40.55	99.2816	4.1197	-16.768
2.337	40.93	99.2609	4.1188	-16.489
2.370	41.30	99.2400	4.1179	-16.210
2.403	41.68	99.2188	4.1171	-15.931
2.437	42.05	99.1975	4.1162	-15.652
2.470	42.43	99.1759	4.1153	-15.376
2.503	42.80	99.1541	4.1144	-15.100
2.537	43.18	99.1320	4.1135	-14.827
2.570	43.55	99.1096	4.1125	-14.556
2.603	43.92	99.0869	4.1116	-14.286
2.637	44.29	99.0639	4.1106	-14.016
2.670	44.66	99.0407	4.1097	-13.748
2.703	45.03	99.0173	4.1087	-13.480
2.737	45.40	98.9936	4.1077	-13.214
2.770	45.77	98.9696	4.1067	-12.951
2.803	46.13	98.9455	4.1057	-12.689
2.837	46.50	98.9212	4.1047	-12.430
2.870	46.86	98.8967	4.1037	-12.175
2.903	47.22	98.8721	4.1027	-11.919
2.937	47.59	98.8472	4.1016	-11.664
2.970	47.95	98.8222	4.1006	-11.412
3.003	48.31	98.7970	4.0996	-11.168
3.037	48.67	98.7715	4.0985	-10.923
3.070	49.02	98.7458	4.0974	-10.678
3.103	49.38	98.7200	4.0964	-10.437
3.137	49.74	98.6940	4.0953	-10.199
3.170	50.09	98.6680	4.0942	-9.962
3.203	50.45	98.6418	4.0931	-9.728
3.237	50.80	98.6156	4.0920	-9.495
3.270	51.15	98.5892	4.0909	-9.265
3.303	51.50	98.5626	4.0898	-9.037
3.337	51.85	98.5360	4.0887	-8.808
3.370	52.20	98.5091	4.0876	-8.583
3.403	52.55	98.4823	4.0865	-8.365
3.437	52.90	98.4554	4.0854	-8.150
3.470	53.25	98.4285	4.0843	-7.929
3.503	53.59	98.4015	4.0831	-7.709
3.537	53.94	98.3746	4.0820	-7.498
3.570	54.29	98.3477	4.0809	-7.287
3.603	54.63	98.3208	4.0798	-7.077
3.637	54.98	98.2939	4.0787	-6.870
3.670	55.32	98.2669	4.0776	-6.665
3.703	55.66	98.2399	4.0764	-6.461
3.737	56.00	98.2129	4.0753	-6.261
3.770	56.35	98.1861	4.0742	-6.063
3.803	56.69	98.1594	4.0731	-5.864
3.837	57.03	98.1327	4.0720	-5.665
3.870	57.37	98.1061	4.0709	-5.471
3.903	57.71	98.0796	4.0698	-5.285
3.937	58.05	98.0532	4.0687	-5.098
3.970	58.40	98.0270	4.0676	-4.907
4.003	58.74	98.0010	4.0665	-4.721
4.037	59.08	97.9752	4.0655	-4.534
4.070	59.42	97.9494	4.0644	-4.346
4.103	59.76	97.9238	4.0633	-4.158
4.137	60.10	97.8993	4.0623	-3.976
4.170	60.44	97.8754	4.0613	-3.797
4.203	60.78	97.8523	4.0604	-3.617
4.237	61.12	97.8283	4.0594	-3.444
4.270	61.46	97.8036	4.0583	-3.274
4.303	61.80	97.7784	4.0573	-3.103
4.337	62.14	97.7538	4.0563	-2.936
4.370	62.47	97.7295	4.0553	-2.766
4.403	62.81	97.7053	4.0543	-2.596
4.437	63.15	97.6814	4.0533	-2.426
4.470	63.49	97.6578	4.0523	-2.260
4.503	63.83	97.6347	4.0513	-2.097
4.537	64.17	97.6120	4.0504	-1.936
4.570	64.51	97.5897	4.0495	-1.776
4.603	64.85	97.5688	4.0486	-1.616
4.637	65.19	97.5480	4.0477	-1.459
4.670	65.53	97.5266	4.0468	-1.302
4.703	65.87	97.5049	4.0459	-1.143
4.737	66.21	97.4835	4.0451	-0.987
4.770	66.55	97.4626	4.0442	-0.833
4.803	66.89	97.4420	4.0433	-0.681
4.837	67.24	97.4218	4.0425	-0.531
4.870	67.58	97.4019	4.0417	-0.381
4.903	67.92	97.3822	4.0409	-0.234
4.937	68.26	97.3629	4.0401	-0.085
4.970	68.60	97.3440	4.0393	0.061
5.003	68.94	97.3258	4.0385	0.202
5.037	69.29	97.3079	4.0378	0.341
5.070	69.63	97.2902	4.0370	0.479
5.103	69.97	97.2725	4.0363	0.618
5.137	70.31	97.2550	4.0356	0.757
5.170	70.65	97.2380	4.0349	0.894
5.203	71.00	97.2213	4.0342	1.031
5.237	71.34	97.2047	4.0335	1.164
5.270	71.68	97.1884	4.0328	1.294
5.303	72.03	97.1726	4.0322	1.422
5.337	72.37	97.1578	4.0315	1.548
5.370	72.71	97.1435	4.0309	1.676
5.403	73.06	97.1295	4.0304	1.804
5.437	73.40	97.1156	4.0298	1.930
5.470	73.74	97.1016	4.0292	2.053
5.503	74.09	97.0872	4.0286	2.179
5.537	74.43	97.0731	4.0280	2.305
5.570	74.78	97.0593	4.0275	2.430
5.603	75.12	97.0457	4.0269	2.549
5.637	75.47	97.0324	4.0263	2.668
5.670	75.81	97.0195	4.0258	2.783
5.703	76.16	97.0069	4.0253	2.897
5.737	76.50	96.9946	4.0248	3.012
5.770	76.85	96.9828	4.0243	3.126
5.803	77.20	96.9712	4.0238	3.236
5.837	77.54	96.9600	4.0233	3.345
5.870	77.89	96.9491	4.0229	3.455
5.903	78.23	96.9384	4.0224	3.563
5.937	78.58	96.9279	4.0220	3.667
5.970	78.92	96.9177	4.0216	3.771
6.003	79.27	96.9077	4.0212	3.873
6.037	79.62	96.8981	4.0208	3.977
6.070	79.96	96.8888	4.0204	4.074
6.103	80.31	96.8797	4.0200	4.172
6.137	80.65	96.8708	4.0196	4.271
6.170	81.00	96.8622	4.0193	4.368
6.203	81.35	96.8544	4.0190	4.465
6.237	81.69	96.8475	4.0187	4.559
6.270	82.04	96.8404	4.0184	4.653
6.303	82.39	96.8325	4.0180	4.746
6.337	82.73	96.8246	4.0177	4.837
6.370	83.08	96.8171	4.0174	4.921
6.403	83.42	96.8097	4.0171	5.003
6.437	83.77	96.8024	4.0168	5.089
6.470	84.12	96.7953	4.0165	5.175
6.503	84.46	96.7885	4.0162	5.258
6.537	84.81	96.7821	4.0159	5.338
6.570	85.16	96.7758	4.0157	5.420
6.603	85.50	96.7697	4.0154	5.498
6.637	85.85	96.7639	4.0152	5.573
[...]
119.070	949.77	1.9648	0.0815	101.038
119.112	949.78	1.9644	0.0815	101.087
119.153	949.78	1.9640	0.0815	101.131
119.195	949.78	1.9635	0.0815	101.171
119.237	949.78	1.9629	0.0815	101.211
119.278	949.79	1.9626	0.0814	101.258
119.320	949.79	1.9623	0.0814	101.305
119.362	949.79	1.9620	0.0814	101.347
119.403	949.79	1.9617	0.0814	101.383
119.445	949.79	1.9614	0.0814	101.428
119.487	949.80	1.9611	0.0814	101.474
119.528	949.80	1.9608	0.0814	101.508
119.570	949.80	1.9605	0.0814	101.545
119.612	949.80	1.9601	0.0813	101.589
119.653	949.80	1.9598	0.0813	101.628
119.695	949.81	1.9595	0.0813	101.664
119.737	949.81	1.9593	0.0813	101.701
119.778	949.81	1.9592	0.0813	101.735
119.820	949.81	1.9589	0.0813	101.768
119.862	949.81	1.9585	0.0813	101.807
119.903	949.82	1.9580	0.0812	101.843
119.945	949.82	1.9576	0.0812	101.872
119.987	949.82	1.9572	0.0812	101.899
120.028	949.82	1.9567	0.0812	101.927
120.070	949.82	1.9562	0.0812	101.966
120.112	949.82	1.9558	0.0812	102.004
120.153	949.82	1.9555	0.0811	102.034
120.195	949.83	1.9552	0.0811	102.057
120.237	949.83	1.9547	0.0811	102.080
120.278	949.83	1.9542	0.0811	102.108
120.320	949.83	1.9539	0.0811	102.138
120.362	949.83	1.9535	0.0811	102.169
120.403	949.83	1.9531	0.0810	102.197
120.445	949.83	1.9527	0.0810	102.221
120.487	949.84	1.9523	0.0810	102.249
120.528	949.84	1.9519	0.0810	102.278
120.570	949.84	1.9517	0.0810	102.308
120.612	949.84	1.9514	0.0810	102.336
120.653	949.84	1.9509	0.0810	102.361
120.695	949.84	1.9505	0.0809	102.391
120.737	949.84	1.9502	0.0809	102.418
120.778	949.84	1.9499	0.0809	102.436
120.820	949.85	1.9496	0.0809	102.455
120.862	949.85	1.9493	0.0809	102.477
120.903	949.85	1.9490	0.0809	102.501
120.945	949.85	1.9483	0.0808	102.523
120.987	949.85	1.9477	0.0808	102.543
121.028	949.85	1.9473	0.0808	102.569
121.070	949.85	1.9469	0.0808	102.596
121.112	949.85	1.9464	0.0808	102.617
121.153	949.85	1.9459	0.0807	102.642
121.195	949.85	1.9455	0.0807	102.669
121.237	949.86	1.9452	0.0807	102.695
121.278	949.86	1.9450	0.0807	102.723
121.320	949.86	1.9448	0.0807	102.752
121.362	949.86	1.9446	0.0807	102.779
121.403	949.86	1.9443	0.0807	102.807
121.445	949.86	1.9441	0.0807	102.832
121.487	949.86	1.9439	0.0807	102.858
121.528	949.86	1.9438	0.0807	102.883
121.570	949.86	1.9437	0.0807	102.903
121.612	949.86	1.9433	0.0806	102.923
121.653	949.87	1.9429	0.0806	102.943
121.695	949.87	1.9426	0.0806	102.963
121.737	949.87	1.9423	0.0806	102.983
121.778	949.87	1.9420	0.0806	103.002
121.820	949.87	1.9418	0.0806	103.022
121.862	949.87	1.9416	0.0806	103.039
121.903	949.87	1.9413	0.0806	103.050
121.945	949.87	1.9410	0.0805	103.063
121.987	949.87	1.9407	0.0805	103.079
122.028	949.87	1.9402	0.0805	103.099
122.070	949.87	1.9397	0.0805	103.119
122.112	949.87	1.9391	0.0805	103.137
122.153	949.88	1.9386	0.0804	103.161
122.195	949.88	1.9383	0.0804	103.188
122.237	949.88	1.9380	0.0804	103.211
122.278	949.88	1.9375	0.0804	103.234
122.320	949.88	1.9372	0.0804	103.253
122.362	949.88	1.9368	0.0804	103.265
122.403	949.88	1.9363	0.0803	103.275
122.445	949.88	1.9359	0.0803	103.288
122.487	949.88	1.9355	0.0803	103.306
122.528	949.88	1.9352	0.0803	103.326
122.570	949.88	1.9348	0.0803	103.344
122.612	949.88	1.9345	0.0803	103.363
122.653	949.88	1.9341	0.0803	103.383
122.695	949.88	1.9338	0.0802	103.399
122.737	949.89	1.9335	0.0802	103.411
122.778	949.89	1.9332	0.0802	103.427
122.820	949.89	1.9328	0.0802	103.442
122.862	949.89	1.9325	0.0802	103.458
122.903	949.89	1.9323	0.0802	103.477
122.945	949.89	1.9320	0.0802	103.498
122.987	949.89	1.9317	0.0802	103.518
123.028	949.89	1.9313	0.0801	103.539
123.070	949.89	1.9310	0.0801	103.559
123.112		1.9307	0.0801
123.145		1.9304	0.0801

File: softwood-20Kmin_2.txt
Filename	softwood-20Kmin_2
Instrument name	0650-0369 (192.168.1.2)
Operator	ca527
rundate	1/9/2023
Sample name	softwood-20Kmin_2
proceduresegments	Select Gas: Gas 1 ; Ramp 10.00 °C/min to 110.00 °C; Isothermal 30.0 min; Ramp 20.00 °C/min to 900.00 °C; Isothermal 30.0 min; Select Gas: Gas 2 ; Ramp 10.00 °C/min to 950.00 °C; Isothermal 10.0 min; Data Off ; Equilibrate 30.00 °C
[step]
Ramp 10.00 °C/min to 110.00 °C
Time	Temperature	Weight	Weight	Heat Flow
min	°C	%	mg	mW
0.003		100.0133	4.0831
0.037		100.1653	4.0893
0.070	22.13	100.3330	4.0962	-28.350
0.103	22.28	100.3928	4.0986	-28.188
0.137	22.44	100.4129	4.0995	-28.035
0.170	22.60	100.4264	4.1000	-27.892
0.203	22.75	100.4369	4.1004	-27.755
0.237	22.89	100.4448	4.1008	-27.622
0.270	23.04	100.4504	4.1010	-27.493
0.303	23.19	100.4536	4.1011	-27.366
0.337	23.33	100.4542	4.1011	-27.242
0.370	23.47	100.4526	4.1011	-27.125
0.403	23.61	100.4491	4.1009	-27.014
0.437	23.76	100.4437	4.1007	-26.901
0.470	23.90	100.4366	4.1004	-26.793
0.503	24.05	100.4277	4.1001	-26.697
0.537	24.20	100.4170	4.0996	-26.611
0.570	24.35	100.4044	4.0991	-26.524
0.603	24.52	100.3903	4.0985	-26.444
0.637	24.68	100.3751	4.0979	-26.374
0.670	24.85	100.3590	4.0973	-26.315
0.703	25.03	100.3422	4.0966	-26.262
0.737	25.21	100.3251	4.0959	-26.211
0.770	25.40	100.3083	4.0952	-26.163
0.803	25.60	100.2917	4.0945	-26.117
0.837	25.80	100.2756	4.0938	-26.076
0.870	26.01	100.2602	4.0932	-26.034
0.903	26.22	100.2457	4.0926	-25.991
0.937	26.45	100.2320	4.0921	-25.944
0.970	26.67	100.2192	4.0915	-25.889
1.003	26.91	100.2073	4.0911	-25.822
1.037	27.16	100.1965	4.0906	-25.748
1.070	27.41	100.1865	4.0902	-25.672
1.103	27.66	100.1771	4.0898	-25.584
1.137	27.93	100.1682	4.0895	-25.484
1.170	28.20	100.1596	4.0891	-25.369
1.203	28.48	100.1512	4.0888	-25.246
1.237	28.76	100.1430	4.0884	-25.112
1.270	29.05	100.1349	4.0881	-24.969
1.303	29.35	100.1267	4.0878	-24.815
1.337	29.65	100.1183	4.0874	-24.649
1.370	29.96	100.1095	4.0871	-24.472
1.403	30.27	100.1005	4.0867	-24.288
1.437	30.59	100.0911	4.0863	-24.095
1.470	30.91	100.0816	4.0859	-23.896
1.503	31.24	100.0716	4.0855	-23.688
1.537	31.57	100.0610	4.0851	-23.473
1.570	31.91	100.0500	4.0846	-23.253
1.603	32.25	100.0388	4.0842	-23.026
1.637	32.59	100.0272	4.0837	-22.790
1.670	32.94	100.0154	4.0832	-22.548
1.703	33.29	100.0032	4.0827	-22.306
1.737	33.64	99.9906	4.0822	-22.056
1.770	34.00	99.9776	4.0817	-21.802
1.803	34.36	99.9644	4.0811	-21.542
1.837	34.72	99.9509	4.0806	-21.280
1.870	35.08	99.9370	4.0800	-21.014
1.903	35.45	99.9229	4.0794	-20.749
1.937	35.82	99.9083	4.0789	-20.484
1.970	36.18	99.8934	4.0782	-20.218
2.003	36.55	99.8781	4.0776	-19.946
2.037	36.93	99.8627	4.0770	-19.671
2.070	37.30	99.8472	4.0764	-19.394
2.103	37.67	99.8314	4.0757	-19.116
2.137	38.04	99.8151	4.0750	-18.834
2.170	38.42	99.7984	4.0744	-18.551
2.203	38.79	99.7815	4.0737	-18.271
2.237	39.17	99.7645	4.0730	-17.992
2.270	39.54	99.7473	4.0723	-17.708
2.303	39.92	99.7299	4.0716	-17.427
2.337	40.30	99.7121	4.0708	-17.145
2.370	40.67	99.6942	4.0701	-16.866
2.403	41.05	99.6760	4.0694	-16.585
2.437	41.42	99.6573	4.0686	-16.305
2.470	41.79	99.6384	4.0678	-16.023
2.503	42.17	99.6194	4.0671	-15.743
2.537	42.54	99.6001	4.0663	-15.467
2.570	42.92	99.5805	4.0655	-15.190
2.603	43.29	99.5605	4.0647	-14.913
2.637	43.66	99.5405	4.0638	-14.637
2.670	44.03	99.5202	4.0630	-14.367
2.703	44.40	99.4994	4.0622	-14.095
2.737	44.77	99.4784	4.0613	-13.828
2.770	45.13	99.4571	4.0604	-13.560
2.803	45.50	99.4355	4.0595	-13.293
2.837	45.87	99.4136	4.0587	-13.028
2.870	46.23	99.3914	4.0577	-12.767
2.903	46.60	99.3689	4.0568	-12.507
2.937	46.96	99.3460	4.0559	-12.248
2.970	47.32	99.3229	4.0550	-11.993
3.003	47.68	99.2996	4.0540	-11.738
3.037	48.04	99.2760	4.0530	-11.486
3.070	48.40	99.2521	4.0521	-11.237
3.103	48.76	99.2279	4.0511	-10.991
3.137	49.12	99.2035	4.0501	-10.744
3.170	49.47	99.1790	4.0491	-10.501
3.203	49.83	99.1541	4.0481	-10.262
3.237	50.18	99.1290	4.0470	-10.025
3.270	50.54	99.1039	4.0460	-9.789
3.303	50.89	99.0786	4.0450	-9.554
3.337	51.24	99.0530	4.0439	-9.323
3.370	51.59	99.0273	4.0429	-9.096
3.403	51.94	99.0016	4.0418	-8.871
3.437	52.29	98.9757	4.0408	-8.646
3.470	52.64	98.9498	4.0397	-8.423
3.503	52.99	98.9237	4.0387	-8.203
3.537	53.34	98.8976	4.0376	-7.985
3.570	53.68	98.8717	4.0365	-7.770
3.603	54.03	98.8458	4.0355	-7.559
3.637	54.37	98.8198	4.0344	-7.350
3.670	54.72	98.7938	4.0333	-7.142
3.703	55.06	98.7677	4.0323	-6.933
3.737	55.41	98.7416	4.0312	-6.731
3.770	55.75	98.7156	4.0302	-6.530
3.803	56.09	98.6895	4.0291	-6.329
3.837	56.44	98.6635	4.0280	-6.131
3.870	56.78	98.6375	4.0270	-5.932
3.903	57.12	98.6116	4.0259	-5.737
3.937	57.46	98.5857	4.0249	-5.541
3.970	57.81	98.5600	4.0238	-5.348
4.003	58.15	98.5344	4.0228	-5.159
4.037	58.49	98.5090	4.0217	-4.972
4.070	58.83	98.4837	4.0207	-4.788
4.103	59.17	98.4586	4.0197	-4.606
4.137	59.51	98.4334	4.0186	-4.422
4.170	59.85	98.4082	4.0176	-4.243
4.203	60.19	98.3832	4.0166	-4.064
4.237	60.53	98.3584	4.0156	-3.888
4.270	60.87	98.3338	4.0146	-3.712
4.303	61.21	98.3095	4.0136	-3.537
4.337	61.55	98.2853	4.0126	-3.362
4.370	61.89	98.2614	4.0116	-3.191
4.403	62.23	98.2376	4.0106	-3.021
4.437	62.57	98.2141	4.0097	-2.852
4.470	62.91	98.1907	4.0087	-2.684
4.503	63.25	98.1676	4.0078	-2.520
4.537	63.59	98.1447	4.0068	-2.357
4.570	63.93	98.1219	4.0059	-2.195
4.603	64.27	98.0994	4.0050	-2.033
4.637	64.61	98.0770	4.0041	-1.873
4.670	64.95	98.0548	4.0032	-1.715
4.703	65.29	98.0330	4.0023	-1.556
4.737	65.63	98.0115	4.0014	-1.400
4.770	65.97	97.9904	4.0005	-1.247
4.803	66.31	97.9695	3.9997	-1.095
4.837	66.65	97.9489	3.9989	-0.945
4.870	66.99	97.9283	3.9980	-0.795
4.903	67.33	97.9080	3.9972	-0.643
4.937	67.67	97.8881	3.9964	-0.493
4.970	68.02	97.8686	3.9956	-0.344
5.003	68.36	97.8493	3.9948	-0.198
5.037	68.70	97.8304	3.9940	-0.057
5.070	69.04	97.8119	3.9933	0.081
5.103	69.38	97.7935	3.9925	0.218
5.137	69.72	97.7753	3.9918	0.361
5.170	70.07	97.7574	3.9910	0.502
5.203	70.41	97.7399	3.9903	0.641
5.237	70.75	97.7229	3.9896	0.774
5.270	71.09	97.7060	3.9889	0.906
5.303	71.44	97.6894	3.9883	1.044
5.337	71.78	97.6731	3.9876	1.181
5.370	72.12	97.6570	3.9869	1.311
5.403	72.47	97.6412	3.9863	1.438
5.437	72.81	97.6258	3.9857	1.567
5.470	73.15	97.6107	3.9850	1.696
5.503	73.50	97.5958	3.9844	1.818
5.537	73.84	97.5812	3.9838	1.941
5.570	74.19	97.5669	3.9833	2.063
5.603	74.53	97.5530	3.9827	2.184
5.637	74.88	97.5394	3.9821	2.306
5.670	75.22	97.5261	3.9816	2.425
5.703	75.57	97.5130	3.9811	2.540
5.737	75.91	97.5002	3.9805	2.657
5.770	76.26	97.4877	3.9800	2.773
5.803	76.60	97.4755	3.9795	2.889
5.837	76.95	97.4636	3.9790	3.003
5.870	77.29	97.4519	3.9786	3.114
5.903	77.64	97.4404	3.9781	3.223
5.937	77.98	97.4291	3.9776	3.328
5.970	78.33	97.4183	3.9772	3.433
6.003	78.67	97.4078	3.9768	3.538
6.037	79.02	97.3974	3.9763	3.645
6.070	79.36	97.3872	3.9759	3.747
6.103	79.71	97.3773	3.9755	3.846
6.137	80.06	97.3677	3.9751	3.944
6.170	80.40	97.3584	3.9747	4.041
6.203	80.75	97.3492	3.9744	4.136
6.237	81.09	97.3404	3.9740	4.234
6.270	81.44	97.3318	3.9737	4.332
6.303	81.79	97.3233	3.9733	4.424
6.337	82.13	97.3150	3.9730	4.514
6.370	82.48	97.3069	3.9726	4.609
6.403	82.82	97.2991	3.9723	4.704
6.437	83.17	97.2916	3.9720	4.791
6.470	83.52	97.2843	3.9717	4.875
6.503	83.86	97.2773	3.9714	4.960
6.537	84.21	97.2704	3.9712	5.047
6.570	84.56	97.2637	3.9709	5.131
6.603	84.90	97.2572	3.9706	5.216
[...]
119.203	949.68	-1.1354	-0.0464	96.951
119.245	949.68	-1.1358	-0.0464	96.987
119.287	949.68	-1.1361	-0.0464	97.022
119.328	949.68	-1.1364	-0.0464	97.067
119.370	949.68	-1.1368	-0.0464	97.107
119.412	949.69	-1.1370	-0.0464	97.136
119.453	949.69	-1.1372	-0.0464	97.161
119.495	949.69	-1.1375	-0.0464	97.188
119.537	949.69	-1.1378	-0.0465	97.226
119.578	949.69	-1.1382	-0.0465	97.260
119.620	949.70	-1.1387	-0.0465	97.285
119.662	949.70	-1.1391	-0.0465	97.312
119.703	949.70	-1.1395	-0.0465	97.336
119.745	949.70	-1.1397	-0.0465	97.360
119.787	949.70	-1.1399	-0.0465	97.382
119.828	949.70	-1.1400	-0.0465	97.406
119.870	949.71	-1.1403	-0.0466	97.428
119.912	949.71	-1.1406	-0.0466	97.446
119.953	949.71	-1.1410	-0.0466	97.466
119.995	949.71	-1.1413	-0.0466	97.490
120.037	949.71	-1.1417	-0.0466	97.516
120.078	949.71	-1.1422	-0.0466	97.538
120.120	949.71	-1.1426	-0.0466	97.562
120.162	949.72	-1.1430	-0.0467	97.591
120.203	949.72	-1.1433	-0.0467	97.616
120.245	949.72	-1.1437	-0.0467	97.637
120.287	949.72	-1.1439	-0.0467	97.658
120.328	949.72	-1.1441	-0.0467	97.680
120.370	949.72	-1.1443	-0.0467	97.702
120.412	949.72	-1.1447	-0.0467	97.719
120.453	949.72	-1.1450	-0.0467	97.732
120.495	949.72	-1.1453	-0.0468	97.747
120.537	949.73	-1.1458	-0.0468	97.764
120.578	949.73	-1.1462	-0.0468	97.782
120.620	949.73	-1.1466	-0.0468	97.803
120.662	949.73	-1.1469	-0.0468	97.832
120.703	949.73	-1.1474	-0.0468	97.861
120.745	949.73	-1.1478	-0.0469	97.888
120.787	949.73	-1.1482	-0.0469	97.916
120.828	949.73	-1.1486	-0.0469	97.939
120.870	949.73	-1.1489	-0.0469	97.956
120.912	949.74	-1.1492	-0.0469	97.969
120.953	949.74	-1.1494	-0.0469	97.982
120.995	949.74	-1.1496	-0.0469	97.998
121.037	949.74	-1.1499	-0.0469	98.015
121.078	949.74	-1.1501	-0.0470	98.036
121.120	949.74	-1.1505	-0.0470	98.059
121.162	949.74	-1.1511	-0.0470	98.077
121.203	949.74	-1.1516	-0.0470	98.090
121.245	949.74	-1.1520	-0.0470	98.101
121.287	949.74	-1.1524	-0.0470	98.114
121.328	949.75	-1.1525	-0.0471	98.127
121.370	949.75	-1.1527	-0.0471	98.142
121.412	949.75	-1.1529	-0.0471	98.155
121.453	949.75	-1.1533	-0.0471	98.168
121.495	949.75	-1.1536	-0.0471	98.182
121.537	949.75	-1.1539	-0.0471	98.195
121.578	949.75	-1.1542	-0.0471	98.209
121.620	949.75	-1.1545	-0.0471	98.225
121.662	949.75	-1.1549	-0.0472	98.240
121.703	949.75	-1.1553	-0.0472	98.253
121.745	949.75	-1.1557	-0.0472	98.265
121.787	949.75	-1.1560	-0.0472	98.278
121.828	949.75	-1.1561	-0.0472	98.294
121.870	949.76	-1.1562	-0.0472	98.311
121.912	949.76	-1.1563	-0.0472	98.327
121.953	949.76	-1.1565	-0.0472	98.340
121.995	949.76	-1.1566	-0.0472	98.350
122.037	949.76	-1.1568	-0.0472	98.364
122.078	949.76	-1.1569	-0.0472	98.380
122.120	949.76	-1.1571	-0.0472	98.397
122.162	949.76	-1.1574	-0.0473	98.415
122.203	949.76	-1.1577	-0.0473	98.432
122.245	949.76	-1.1581	-0.0473	98.450
122.287	949.76	-1.1584	-0.0473	98.465
122.328	949.76	-1.1586	-0.0473	98.474
122.370	949.76	-1.1589	-0.0473	98.480
122.412	949.76	-1.1593	-0.0473	98.489
122.453	949.76	-1.1596	-0.0473	98.498
122.495	949.76	-1.1599	-0.0474	98.507
122.537	949.77	-1.1602	-0.0474	98.518
122.578	949.77	-1.1604	-0.0474	98.529
122.620	949.76	-1.1606	-0.0474	98.536
122.662	949.77	-1.1610	-0.0474	98.542
122.703	949.77	-1.1613	-0.0474	98.552
122.745	949.77	-1.1614	-0.0474	98.564
122.787	949.77	-1.1616	-0.0474	98.574
122.828	949.77	-1.1619	-0.0474	98.586
122.870	949.77	-1.1622	-0.0474	98.602
122.912	949.77	-1.1625	-0.0475	98.613
122.953	949.77	-1.1629	-0.0475	98.622
122.995	949.77	-1.1634	-0.0475	98.637
123.037	949.77	-1.1637	-0.0475	98.652
123.078	949.77	-1.1641	-0.0475	98.663
123.120	949.77	-1.1646	-0.0475	98.674
123.162		-1.1651	-0.0476
123.195		-1.1654	-0.0476