Folder: tga_data_analysis/PSO Kinetics/data

Note: README.md
# PyTGA - Thermogravimetric Analysis in Python

## Overview
PyTGA is a Python module designed for conducting and analyzing Thermogravimetric Analysis (TGA) experiments. It offers tools for loading, processing, and analyzing TGA data, focusing on proximate and oxidation analysis, solid distillation analysis, and deconvolution analysis.

## Features
- **Data Loading**: Supports loading TGA data from files.
- **Proximate Analysis**: Calculates moisture, ash, and volatile matter.
- **Oxidation Analysis**: Computes Ti, Tp, Tb, etc.
- **Solid Distillation Analysis**: Analyzes solid distillation over time.
- **Deconvolution Analysis**: Deconvolutes TGA curves for peak analysis.
- **Plotting and Visualization**: Functions for TGA data visualization.

File: softwood-5Kmin_1.txt
Filename	softwood-5Kmin_1
Instrument name	0650-0369 (192.168.1.2)
Operator	ca527
rundate	1/10/2023
Sample name	softwood-5Kmin_1
proceduresegments	Select Gas: Gas 1 ; Ramp 10.00 °C/min to 110.00 °C; Isothermal 30.0 min; Ramp 5.00 °C/min to 900.00 °C; Isothermal 30.0 min; Select Gas: Gas 2 ; Ramp 10.00 °C/min to 950.00 °C; Isothermal 10.0 min; Data Off ; Equilibrate 30.00 °C
[step]
Ramp 10.00 °C/min to 110.00 °C
Time	Temperature	Weight	Weight	Heat Flow
min	°C	%	mg	mW
0.003		100.0320	3.1726
0.037		100.1214	3.1754
0.070	22.11	100.0360	3.1727	-28.283
0.103	22.27	99.8748	3.1676	-28.123
0.137	22.42	99.8082	3.1655	-27.980
0.170	22.57	99.7778	3.1645	-27.847
0.203	22.72	99.7494	3.1636	-27.722
0.237	22.87	99.7222	3.1627	-27.603
0.270	23.01	99.6956	3.1619	-27.489
0.303	23.15	99.6692	3.1611	-27.379
0.337	23.29	99.6423	3.1602	-27.272
0.370	23.43	99.6147	3.1593	-27.168
0.403	23.58	99.5864	3.1584	-27.072
0.437	23.72	99.5572	3.1575	-26.977
0.470	23.86	99.5268	3.1565	-26.883
0.503	24.00	99.4948	3.1555	-26.796
0.537	24.16	99.4612	3.1545	-26.718
0.570	24.31	99.4262	3.1534	-26.652
0.603	24.47	99.3902	3.1522	-26.589
0.637	24.64	99.3533	3.1510	-26.535
0.670	24.81	99.3160	3.1499	-26.481
0.703	24.99	99.2787	3.1487	-26.432
0.737	25.17	99.2417	3.1475	-26.391
0.770	25.36	99.2053	3.1463	-26.347
0.803	25.56	99.1699	3.1452	-26.295
0.837	25.76	99.1356	3.1441	-26.242
0.870	25.97	99.1025	3.1431	-26.195
0.903	26.19	99.0704	3.1421	-26.140
0.937	26.41	99.0397	3.1411	-26.074
0.970	26.64	99.0102	3.1402	-26.002
1.003	26.88	98.9818	3.1393	-25.925
1.037	27.12	98.9542	3.1384	-25.841
1.070	27.38	98.9276	3.1375	-25.740
1.103	27.64	98.9016	3.1367	-25.627
1.137	27.90	98.8762	3.1359	-25.506
1.170	28.17	98.8510	3.1351	-25.374
1.203	28.45	98.8260	3.1343	-25.236
1.237	28.74	98.8009	3.1335	-25.086
1.270	29.03	98.7757	3.1327	-24.928
1.303	29.33	98.7505	3.1319	-24.762
1.337	29.63	98.7251	3.1311	-24.586
1.370	29.94	98.6994	3.1303	-24.400
1.403	30.25	98.6733	3.1295	-24.208
1.437	30.57	98.6468	3.1286	-24.009
1.470	30.90	98.6200	3.1278	-23.800
1.503	31.23	98.5928	3.1269	-23.585
1.537	31.56	98.5653	3.1261	-23.366
1.570	31.90	98.5377	3.1252	-23.145
1.603	32.24	98.5097	3.1243	-22.917
1.637	32.58	98.4814	3.1234	-22.682
1.670	32.93	98.4529	3.1225	-22.443
1.703	33.28	98.4243	3.1216	-22.202
1.737	33.63	98.3953	3.1207	-21.956
1.770	33.99	98.3660	3.1197	-21.704
1.803	34.35	98.3364	3.1188	-21.450
1.837	34.71	98.3067	3.1178	-21.195
1.870	35.07	98.2767	3.1169	-20.939
1.903	35.44	98.2465	3.1159	-20.679
1.937	35.80	98.2160	3.1150	-20.414
1.970	36.17	98.1853	3.1140	-20.146
2.003	36.54	98.1543	3.1130	-19.878
2.037	36.91	98.1232	3.1120	-19.610
2.070	37.28	98.0921	3.1110	-19.342
2.103	37.65	98.0608	3.1100	-19.071
2.137	38.03	98.0293	3.1090	-18.797
2.170	38.40	97.9975	3.1080	-18.518
2.203	38.78	97.9655	3.1070	-18.243
2.237	39.15	97.9331	3.1060	-17.968
2.270	39.53	97.9005	3.1050	-17.693
2.303	39.90	97.8677	3.1039	-17.413
2.337	40.28	97.8346	3.1029	-17.136
2.370	40.65	97.8012	3.1018	-16.859
2.403	41.03	97.7676	3.1008	-16.580
2.437	41.40	97.7337	3.0997	-16.300
2.470	41.78	97.6997	3.0986	-16.023
2.503	42.15	97.6655	3.0975	-15.748
2.537	42.52	97.6312	3.0964	-15.475
2.570	42.89	97.5968	3.0953	-15.199
2.603	43.27	97.5622	3.0942	-14.925
2.637	43.64	97.5275	3.0931	-14.651
2.670	44.01	97.4926	3.0920	-14.377
2.703	44.37	97.4577	3.0909	-14.102
2.737	44.74	97.4226	3.0898	-13.830
2.770	45.11	97.3874	3.0887	-13.559
2.803	45.48	97.3523	3.0876	-13.294
2.837	45.85	97.3169	3.0865	-13.024
2.870	46.21	97.2813	3.0853	-12.760
2.903	46.57	97.2457	3.0842	-12.502
2.937	46.94	97.2103	3.0831	-12.244
2.970	47.30	97.1749	3.0820	-11.981
3.003	47.66	97.1392	3.0808	-11.725
3.037	48.02	97.1034	3.0797	-11.469
3.070	48.38	97.0676	3.0785	-11.215
3.103	48.74	97.0318	3.0774	-10.961
3.137	49.09	96.9960	3.0763	-10.709
3.170	49.45	96.9604	3.0751	-10.458
3.203	49.81	96.9249	3.0740	-10.210
3.237	50.16	96.8894	3.0729	-9.967
3.270	50.51	96.8538	3.0718	-9.724
3.303	50.87	96.8184	3.0706	-9.478
3.337	51.22	96.7833	3.0695	-9.237
3.370	51.57	96.7482	3.0684	-8.999
3.403	51.92	96.7132	3.0673	-8.763
3.437	52.27	96.6782	3.0662	-8.529
3.470	52.62	96.6435	3.0651	-8.300
3.503	52.97	96.6090	3.0640	-8.073
3.537	53.32	96.5746	3.0629	-7.850
3.570	53.67	96.5404	3.0618	-7.627
3.603	54.01	96.5065	3.0608	-7.405
3.637	54.36	96.4729	3.0597	-7.179
3.670	54.71	96.4394	3.0586	-6.955
3.703	55.05	96.4060	3.0576	-6.732
3.737	55.40	96.3727	3.0565	-6.517
3.770	55.74	96.3396	3.0555	-6.304
3.803	56.08	96.3069	3.0544	-6.095
3.837	56.43	96.2747	3.0534	-5.881
3.870	56.77	96.2428	3.0524	-5.672
3.903	57.11	96.2112	3.0514	-5.467
3.937	57.46	96.1799	3.0504	-5.261
3.970	57.80	96.1489	3.0494	-5.058
4.003	58.14	96.1182	3.0484	-4.853
4.037	58.48	96.0877	3.0475	-4.654
4.070	58.82	96.0577	3.0465	-4.459
4.103	59.17	96.0281	3.0456	-4.265
4.137	59.51	95.9988	3.0447	-4.071
4.170	59.85	95.9699	3.0437	-3.879
4.203	60.19	95.9413	3.0428	-3.685
4.237	60.53	95.9130	3.0419	-3.492
4.270	60.87	95.8851	3.0410	-3.304
4.303	61.21	95.8577	3.0402	-3.119
4.337	61.55	95.8307	3.0393	-2.935
4.370	61.89	95.8041	3.0385	-2.755
4.403	62.23	95.7778	3.0376	-2.575
4.437	62.57	95.7519	3.0368	-2.394
4.470	62.91	95.7264	3.0360	-2.219
4.503	63.25	95.7013	3.0352	-2.044
4.537	63.60	95.6767	3.0344	-1.870
4.570	63.94	95.6523	3.0337	-1.696
4.603	64.28	95.6285	3.0329	-1.525
4.637	64.62	95.6051	3.0322	-1.355
4.670	64.96	95.5820	3.0314	-1.184
4.703	65.30	95.5593	3.0307	-1.015
4.737	65.64	95.5370	3.0300	-0.852
4.770	65.99	95.5150	3.0293	-0.686
4.803	66.33	95.4933	3.0286	-0.519
4.837	66.67	95.4719	3.0279	-0.358
4.870	67.01	95.4510	3.0273	-0.202
4.903	67.35	95.4304	3.0266	-0.048
4.937	67.69	95.4101	3.0260	0.106
4.970	68.04	95.3902	3.0253	0.258
5.003	68.38	95.3708	3.0247	0.406
5.037	68.72	95.3517	3.0241	0.556
5.070	69.06	95.3330	3.0235	0.705
5.103	69.41	95.3147	3.0230	0.851
5.137	69.75	95.2969	3.0224	0.995
5.170	70.09	95.2793	3.0218	1.137
5.203	70.44	95.2620	3.0213	1.277
5.237	70.78	95.2451	3.0207	1.421
5.270	71.12	95.2285	3.0202	1.565
5.303	71.47	95.2122	3.0197	1.702
5.337	71.81	95.1965	3.0192	1.839
5.370	72.16	95.1835	3.0188	1.976
5.403	72.50	95.1724	3.0184	2.108
5.437	72.84	95.1602	3.0181	2.242
5.470	73.19	95.1440	3.0175	2.368
5.503	73.53	95.1281	3.0170	2.497
5.537	73.88	95.1129	3.0166	2.627
5.570	74.22	95.0982	3.0161	2.753
5.603	74.57	95.0839	3.0156	2.879
5.637	74.91	95.0701	3.0152	2.999
5.670	75.26	95.0570	3.0148	3.117
5.703	75.60	95.0444	3.0144	3.234
5.737	75.95	95.0322	3.0140	3.354
5.770	76.29	95.0203	3.0136	3.474
5.803	76.64	95.0086	3.0132	3.592
5.837	76.99	94.9973	3.0129	3.706
5.870	77.33	94.9863	3.0125	3.816
5.903	77.68	94.9757	3.0122	3.927
5.937	78.02	94.9654	3.0119	4.035
5.970	78.37	94.9554	3.0116	4.144
6.003	78.72	94.9457	3.0113	4.248
6.037	79.06	94.9363	3.0110	4.351
6.070	79.41	94.9273	3.0107	4.455
6.103	79.75	94.9188	3.0104	4.558
6.137	80.10	94.9105	3.0101	4.660
6.170	80.44	94.9024	3.0099	4.754
6.203	80.79	94.8945	3.0096	4.846
6.237	81.14	94.8867	3.0094	4.940
6.270	81.48	94.8792	3.0091	5.034
6.303	81.83	94.8719	3.0089	5.131
6.337	82.17	94.8649	3.0087	5.226
6.370	82.52	94.8582	3.0085	5.312
6.403	82.87	94.8516	3.0083	5.396
6.437	83.21	94.8454	3.0081	5.482
6.470	83.56	94.8395	3.0079	5.570
6.503	83.91	94.8337	3.0077	5.654
6.537	84.25	94.8280	3.0075	5.738
6.570	84.60	94.8226	3.0073	5.820
6.603	84.94	94.8174	3.0072	5.904
6.637	85.29	94.8124	3.0070	5.983
6.670	85.64	94.8074	3.0069	6.059
[...]
237.753	949.70	-5.6265	-0.1784	97.838
237.795	949.70	-5.6270	-0.1785	97.877
237.837	949.71	-5.6276	-0.1785	97.919
237.878	949.71	-5.6280	-0.1785	97.967
237.920	949.71	-5.6281	-0.1785	98.009
237.962	949.71	-5.6283	-0.1785	98.046
238.003	949.72	-5.6287	-0.1785	98.087
238.045	949.72	-5.6291	-0.1785	98.130
238.087	949.72	-5.6295	-0.1785	98.178
238.128	949.72	-5.6300	-0.1786	98.223
238.170	949.72	-5.6306	-0.1786	98.261
238.212	949.72	-5.6310	-0.1786	98.293
238.253	949.73	-5.6314	-0.1786	98.330
238.295	949.73	-5.6319	-0.1786	98.372
238.337	949.73	-5.6323	-0.1786	98.414
238.378	949.73	-5.6327	-0.1786	98.456
238.420	949.73	-5.6330	-0.1787	98.496
238.462	949.74	-5.6333	-0.1787	98.539
238.503	949.74	-5.6336	-0.1787	98.590
238.545	949.74	-5.6340	-0.1787	98.636
238.587	949.74	-5.6345	-0.1787	98.673
238.628	949.74	-5.6349	-0.1787	98.712
238.670	949.74	-5.6353	-0.1787	98.750
238.712	949.75	-5.6355	-0.1787	98.780
238.753	949.75	-5.6358	-0.1787	98.811
238.795	949.75	-5.6360	-0.1787	98.848
238.837	949.75	-5.6361	-0.1788	98.884
238.878	949.75	-5.6364	-0.1788	98.916
238.920	949.75	-5.6368	-0.1788	98.950
238.962	949.76	-5.6372	-0.1788	98.991
239.003	949.76	-5.6377	-0.1788	99.032
239.045	949.76	-5.6382	-0.1788	99.061
239.087	949.76	-5.6386	-0.1788	99.089
239.128	949.76	-5.6389	-0.1788	99.126
239.170	949.76	-5.6393	-0.1789	99.166
239.212	949.76	-5.6398	-0.1789	99.207
239.253	949.77	-5.6402	-0.1789	99.239
239.295	949.77	-5.6405	-0.1789	99.259
239.337	949.77	-5.6407	-0.1789	99.282
239.378	949.77	-5.6409	-0.1789	99.314
239.420	949.77	-5.6412	-0.1789	99.351
239.462	949.77	-5.6417	-0.1789	99.389
239.503	949.77	-5.6422	-0.1789	99.424
239.545	949.77	-5.6427	-0.1790	99.454
239.587	949.78	-5.6433	-0.1790	99.484
239.628	949.78	-5.6437	-0.1790	99.518
239.670	949.78	-5.6441	-0.1790	99.547
239.712	949.78	-5.6447	-0.1790	99.571
239.753	949.78	-5.6451	-0.1790	99.594
239.795	949.78	-5.6453	-0.1790	99.622
239.837	949.78	-5.6456	-0.1791	99.655
239.878	949.78	-5.6460	-0.1791	99.681
239.920	949.79	-5.6467	-0.1791	99.706
239.962	949.79	-5.6471	-0.1791	99.734
240.003	949.79	-5.6474	-0.1791	99.760
240.045	949.79	-5.6480	-0.1791	99.788
240.087	949.79	-5.6485	-0.1791	99.816
240.128	949.79	-5.6487	-0.1792	99.838
240.170	949.79	-5.6490	-0.1792	99.862
240.212	949.79	-5.6496	-0.1792	99.892
240.253	949.79	-5.6502	-0.1792	99.918
240.295	949.79	-5.6506	-0.1792	99.936
240.337	949.80	-5.6509	-0.1792	99.954
240.378	949.80	-5.6513	-0.1792	99.975
240.420	949.80	-5.6516	-0.1792	99.999
240.462	949.80	-5.6520	-0.1793	100.027
240.503	949.80	-5.6523	-0.1793	100.060
240.545	949.80	-5.6525	-0.1793	100.095
240.587	949.80	-5.6526	-0.1793	100.128
240.628	949.80	-5.6528	-0.1793	100.155
240.670	949.80	-5.6533	-0.1793	100.182
240.712	949.80	-5.6538	-0.1793	100.213
240.753	949.80	-5.6541	-0.1793	100.239
240.795	949.81	-5.6545	-0.1793	100.260
240.837	949.81	-5.6548	-0.1793	100.283
240.878	949.81	-5.6554	-0.1794	100.306
240.920	949.81	-5.6561	-0.1794	100.329
240.962	949.81	-5.6566	-0.1794	100.354
241.003	949.81	-5.6570	-0.1794	100.382
241.045	949.81	-5.6575	-0.1794	100.411
241.087	949.81	-5.6580	-0.1794	100.441
241.128	949.81	-5.6584	-0.1795	100.469
241.170	949.81	-5.6587	-0.1795	100.490
241.212	949.81	-5.6591	-0.1795	100.512
241.253	949.81	-5.6595	-0.1795	100.534
241.295	949.82	-5.6600	-0.1795	100.555
241.337	949.82	-5.6604	-0.1795	100.583
241.378	949.82	-5.6608	-0.1795	100.610
241.420	949.82	-5.6615	-0.1796	100.633
241.462	949.82	-5.6623	-0.1796	100.656
241.503	949.82	-5.6630	-0.1796	100.684
241.545	949.82	-5.6636	-0.1796	100.707
241.587	949.82	-5.6639	-0.1796	100.724
241.628	949.82	-5.6643	-0.1796	100.743
241.670		-5.6648	-0.1797
241.703		-5.6652	-0.1797

File: softwood-5Kmin_2.txt
Filename	softwood-5Kmin_2
Instrument name	0650-0369 (192.168.1.2)
Operator	ca527
rundate	1/10/2023
Sample name	softwood-5Kmin_2
proceduresegments	Select Gas: Gas 1 ; Ramp 10.00 °C/min to 110.00 °C; Isothermal 30.0 min; Ramp 5.00 °C/min to 900.00 °C; Isothermal 30.0 min; Select Gas: Gas 2 ; Ramp 10.00 °C/min to 950.00 °C; Isothermal 10.0 min; Data Off ; Equilibrate 30.00 °C
[step]
Ramp 10.00 °C/min to 110.00 °C
Time	Temperature	Weight	Weight	Heat Flow
min	°C	%	mg	mW
0.003		100.0229	4.2635
0.037		100.1158	4.2674
0.070	22.67	100.1727	4.2699	-26.683
0.103	22.81	100.1919	4.2707	-26.551
0.137	22.95	100.2023	4.2711	-26.438
0.170	23.09	100.2082	4.2714	-26.336
0.203	23.23	100.2106	4.2715	-26.240
0.237	23.37	100.2098	4.2715	-26.149
0.270	23.50	100.2059	4.2713	-26.063
0.303	23.63	100.1988	4.2710	-25.981
0.337	23.76	100.1889	4.2706	-25.905
0.370	23.90	100.1764	4.2700	-25.836
0.403	24.03	100.1615	4.2694	-25.767
0.437	24.16	100.1446	4.2687	-25.699
0.470	24.29	100.1255	4.2679	-25.640
0.503	24.43	100.1042	4.2670	-25.591
0.537	24.58	100.0806	4.2659	-25.546
0.570	24.73	100.0551	4.2649	-25.506
0.603	24.88	100.0279	4.2637	-25.471
0.637	25.04	99.9995	4.2625	-25.444
0.670	25.21	99.9701	4.2612	-25.420
0.703	25.39	99.9399	4.2600	-25.401
0.737	25.57	99.9092	4.2586	-25.383
0.770	25.75	99.8784	4.2573	-25.367
0.803	25.95	99.8478	4.2560	-25.356
0.837	26.15	99.8176	4.2547	-25.350
0.870	26.36	99.7881	4.2535	-25.342
0.903	26.57	99.7591	4.2522	-25.328
0.937	26.79	99.7311	4.2510	-25.310
0.970	27.02	99.7040	4.2499	-25.285
1.003	27.26	99.6778	4.2488	-25.253
1.037	27.50	99.6524	4.2477	-25.208
1.070	27.75	99.6277	4.2466	-25.153
1.103	28.01	99.6036	4.2456	-25.091
1.137	28.28	99.5801	4.2446	-25.013
1.170	28.55	99.5570	4.2436	-24.921
1.203	28.83	99.5342	4.2427	-24.820
1.237	29.11	99.5112	4.2417	-24.703
1.270	29.41	99.4883	4.2407	-24.574
1.303	29.70	99.4653	4.2397	-24.434
1.337	30.01	99.4420	4.2387	-24.285
1.370	30.32	99.4183	4.2377	-24.123
1.403	30.64	99.3943	4.2367	-23.952
1.437	30.96	99.3700	4.2357	-23.775
1.470	31.28	99.3454	4.2346	-23.588
1.503	31.61	99.3203	4.2335	-23.387
1.537	31.95	99.2948	4.2325	-23.179
1.570	32.29	99.2689	4.2314	-22.963
1.603	32.63	99.2428	4.2302	-22.741
1.637	32.98	99.2163	4.2291	-22.510
1.670	33.33	99.1893	4.2280	-22.273
1.703	33.68	99.1620	4.2268	-22.031
1.737	34.04	99.1343	4.2256	-21.784
1.770	34.40	99.1062	4.2244	-21.536
1.803	34.76	99.0778	4.2232	-21.285
1.837	35.12	99.0490	4.2220	-21.029
1.870	35.49	99.0199	4.2207	-20.766
1.903	35.86	98.9904	4.2195	-20.502
1.937	36.23	98.9607	4.2182	-20.236
1.970	36.60	98.9307	4.2169	-19.965
2.003	36.97	98.9002	4.2156	-19.691
2.037	37.34	98.8694	4.2143	-19.418
2.070	37.72	98.8383	4.2130	-19.145
2.103	38.10	98.8068	4.2117	-18.869
2.137	38.47	98.7751	4.2103	-18.590
2.170	38.85	98.7430	4.2089	-18.312
2.203	39.22	98.7107	4.2076	-18.031
2.237	39.60	98.6780	4.2062	-17.751
2.270	39.98	98.6451	4.2048	-17.469
2.303	40.36	98.6120	4.2033	-17.188
2.337	40.73	98.5786	4.2019	-16.906
2.370	41.11	98.5448	4.2005	-16.624
2.403	41.48	98.5108	4.1990	-16.347
2.437	41.86	98.4767	4.1976	-16.067
2.470	42.24	98.4424	4.1961	-15.789
2.503	42.61	98.4078	4.1946	-15.511
2.537	42.98	98.3729	4.1932	-15.233
2.570	43.36	98.3378	4.1917	-14.954
2.603	43.73	98.3026	4.1902	-14.677
2.637	44.10	98.2672	4.1887	-14.405
2.670	44.47	98.2316	4.1871	-14.136
2.703	44.84	98.1958	4.1856	-13.869
2.737	45.21	98.1598	4.1841	-13.600
2.770	45.58	98.1236	4.1825	-13.330
2.803	45.94	98.0872	4.1810	-13.061
2.837	46.31	98.0507	4.1794	-12.797
2.870	46.68	98.0141	4.1779	-12.538
2.903	47.04	97.9774	4.1763	-12.278
2.937	47.40	97.9404	4.1747	-12.015
2.970	47.76	97.9034	4.1731	-11.755
3.003	48.13	97.8663	4.1716	-11.498
3.037	48.49	97.8292	4.1700	-11.244
3.070	48.84	97.7920	4.1684	-10.992
3.103	49.20	97.7547	4.1668	-10.740
3.137	49.56	97.7174	4.1652	-10.496
3.170	49.92	97.6800	4.1636	-10.252
3.203	50.27	97.6427	4.1620	-10.011
3.237	50.62	97.6054	4.1604	-9.771
3.270	50.98	97.5680	4.1588	-9.531
3.303	51.33	97.5306	4.1573	-9.290
3.337	51.68	97.4932	4.1557	-9.054
3.370	52.03	97.4558	4.1541	-8.822
3.403	52.38	97.4184	4.1525	-8.591
3.437	52.73	97.3811	4.1509	-8.356
3.470	53.08	97.3439	4.1493	-8.126
3.503	53.43	97.3067	4.1477	-7.903
3.537	53.78	97.2695	4.1461	-7.680
3.570	54.12	97.2325	4.1445	-7.455
3.603	54.47	97.1957	4.1430	-7.235
3.637	54.81	97.1592	4.1414	-7.016
3.670	55.16	97.1228	4.1399	-6.800
3.703	55.50	97.0866	4.1383	-6.583
3.737	55.85	97.0505	4.1368	-6.373
3.770	56.19	97.0146	4.1353	-6.161
3.803	56.54	96.9790	4.1337	-5.952
3.837	56.88	96.9437	4.1322	-5.742
3.870	57.22	96.9087	4.1307	-5.535
3.903	57.56	96.8738	4.1293	-5.330
3.937	57.91	96.8390	4.1278	-5.127
3.970	58.25	96.8044	4.1263	-4.924
4.003	58.59	96.7701	4.1248	-4.726
4.037	58.93	96.7363	4.1234	-4.526
4.070	59.27	96.7027	4.1220	-4.329
4.103	59.61	96.6695	4.1205	-4.131
4.137	59.95	96.6365	4.1191	-3.939
4.170	60.29	96.6038	4.1177	-3.749
4.203	60.64	96.5716	4.1164	-3.559
4.237	60.98	96.5398	4.1150	-3.370
4.270	61.32	96.5082	4.1137	-3.181
4.303	61.66	96.4770	4.1123	-2.994
4.337	62.00	96.4462	4.1110	-2.807
4.370	62.34	96.4157	4.1097	-2.622
4.403	62.68	96.3854	4.1084	-2.441
4.437	63.02	96.3554	4.1072	-2.259
4.470	63.36	96.3257	4.1059	-2.082
4.503	63.70	96.2965	4.1047	-1.905
4.537	64.04	96.2676	4.1034	-1.726
4.570	64.38	96.2392	4.1022	-1.548
4.603	64.73	96.2114	4.1010	-1.370
4.637	65.07	96.1838	4.0998	-1.194
4.670	65.41	96.1566	4.0987	-1.022
4.703	65.75	96.1297	4.0975	-0.853
4.737	66.09	96.1033	4.0964	-0.684
4.770	66.43	96.0773	4.0953	-0.515
4.803	66.77	96.0516	4.0942	-0.349
4.837	67.12	96.0264	4.0931	-0.184
4.870	67.46	96.0016	4.0921	-0.016
4.903	67.80	95.9772	4.0910	0.151
4.937	68.14	95.9531	4.0900	0.312
4.970	68.49	95.9294	4.0890	0.466
5.003	68.83	95.9061	4.0880	0.622
5.037	69.17	95.8833	4.0870	0.780
5.070	69.52	95.8609	4.0861	0.935
5.103	69.86	95.8388	4.0851	1.088
5.137	70.20	95.8170	4.0842	1.241
5.170	70.55	95.7955	4.0833	1.393
5.203	70.89	95.7746	4.0824	1.543
5.237	71.24	95.7540	4.0815	1.689
5.270	71.58	95.7339	4.0807	1.835
5.303	71.92	95.7142	4.0798	1.980
5.337	72.27	95.6950	4.0790	2.125
5.370	72.61	95.6761	4.0782	2.266
5.403	72.96	95.6576	4.0774	2.406
5.437	73.30	95.6394	4.0766	2.545
5.470	73.65	95.6216	4.0759	2.683
5.503	74.00	95.6040	4.0751	2.822
5.537	74.34	95.5868	4.0744	2.959
5.570	74.69	95.5702	4.0737	3.095
5.603	75.04	95.5540	4.0730	3.230
5.637	75.38	95.5381	4.0723	3.368
5.670	75.73	95.5225	4.0717	3.498
5.703	76.07	95.5072	4.0710	3.625
5.737	76.42	95.4924	4.0704	3.749
5.770	76.77	95.4779	4.0698	3.875
5.803	77.11	95.4638	4.0692	3.997
5.837	77.46	95.4501	4.0686	4.122
5.870	77.81	95.4367	4.0680	4.244
5.903	78.15	95.4236	4.0674	4.364
5.937	78.50	95.4107	4.0669	4.480
5.970	78.85	95.3981	4.0664	4.594
6.003	79.20	95.3857	4.0658	4.707
6.037	79.54	95.3736	4.0653	4.819
6.070	79.89	95.3618	4.0648	4.930
6.103	80.24	95.3503	4.0643	5.041
6.137	80.58	95.3391	4.0638	5.152
6.170	80.93	95.3283	4.0634	5.260
6.203	81.28	95.3178	4.0629	5.368
6.237	81.63	95.3077	4.0625	5.474
6.270	81.97	95.2979	4.0621	5.575
6.303	82.32	95.2883	4.0617	5.678
6.337	82.67	95.2790	4.0613	5.780
6.370	83.02	95.2700	4.0609	5.880
6.403	83.36	95.2611	4.0605	5.976
6.437	83.71	95.2526	4.0602	6.066
6.470	84.06	95.2443	4.0598	6.159
6.503	84.40	95.2363	4.0595	6.251
6.537	84.75	95.2284	4.0591	6.341
6.570	85.10	95.2208	4.0588	6.432
6.603	85.44	95.2134	4.0585	6.523
6.637	85.79	95.2063	4.0582	6.609
[...]
237.662	948.77	-4.6261	-0.1972	59.257
237.703	948.77	-4.6265	-0.1972	59.307
237.745	948.77	-4.6268	-0.1972	59.351
237.787	948.78	-4.6270	-0.1972	59.395
237.828	948.78	-4.6273	-0.1972	59.440
237.870	948.78	-4.6277	-0.1973	59.484
237.912	948.78	-4.6280	-0.1973	59.524
237.953	948.79	-4.6283	-0.1973	59.562
237.995	948.79	-4.6286	-0.1973	59.600
238.037	948.79	-4.6287	-0.1973	59.640
238.078	948.79	-4.6290	-0.1973	59.685
238.120	948.79	-4.6294	-0.1973	59.728
238.162	948.80	-4.6296	-0.1973	59.775
238.203	948.80	-4.6300	-0.1974	59.830
238.245	948.80	-4.6304	-0.1974	59.880
238.287	948.80	-4.6306	-0.1974	59.924
238.328	948.80	-4.6311	-0.1974	59.973
238.370	948.80	-4.6316	-0.1974	60.023
238.412	948.81	-4.6320	-0.1974	60.062
238.453	948.81	-4.6323	-0.1975	60.093
238.495	948.81	-4.6326	-0.1975	60.137
238.537	948.81	-4.6329	-0.1975	60.186
238.578	948.81	-4.6332	-0.1975	60.224
238.620	948.82	-4.6335	-0.1975	60.259
238.662	948.82	-4.6338	-0.1975	60.298
238.703	948.82	-4.6340	-0.1975	60.331
238.745	948.82	-4.6343	-0.1975	60.361
238.787	948.82	-4.6347	-0.1976	60.397
238.828	948.83	-4.6350	-0.1976	60.433
238.870	948.83	-4.6353	-0.1976	60.465
238.912	948.83	-4.6357	-0.1976	60.496
238.953	948.83	-4.6359	-0.1976	60.533
238.995	948.83	-4.6362	-0.1976	60.570
239.037	948.83	-4.6366	-0.1976	60.603
239.078	948.83	-4.6369	-0.1976	60.645
239.120	948.84	-4.6372	-0.1977	60.687
239.162	948.84	-4.6375	-0.1977	60.720
239.203	948.84	-4.6378	-0.1977	60.757
239.245	948.84	-4.6381	-0.1977	60.795
239.287	948.84	-4.6384	-0.1977	60.832
239.328	948.84	-4.6386	-0.1977	60.876
239.370	948.84	-4.6387	-0.1977	60.922
239.412	948.84	-4.6390	-0.1977	60.964
239.453	948.84	-4.6394	-0.1978	61.010
239.495	948.85	-4.6397	-0.1978	61.051
239.537	948.85	-4.6400	-0.1978	61.078
239.578	948.85	-4.6401	-0.1978	61.104
239.620	948.85	-4.6404	-0.1978	61.133
239.662	948.85	-4.6408	-0.1978	61.163
239.703	948.85	-4.6411	-0.1978	61.201
239.745	948.86	-4.6414	-0.1978	61.247
239.787	948.86	-4.6417	-0.1979	61.293
239.828	948.86	-4.6421	-0.1979	61.328
239.870	948.86	-4.6424	-0.1979	61.352
239.912	948.86	-4.6427	-0.1979	61.378
239.953	948.86	-4.6430	-0.1979	61.409
239.995	948.86	-4.6432	-0.1979	61.443
240.037	948.87	-4.6434	-0.1979	61.469
240.078	948.87	-4.6437	-0.1979	61.488
240.120	948.87	-4.6441	-0.1980	61.511
240.162	948.87	-4.6446	-0.1980	61.538
240.203	948.87	-4.6450	-0.1980	61.563
240.245	948.87	-4.6453	-0.1980	61.599
240.287	948.87	-4.6456	-0.1980	61.641
240.328	948.87	-4.6460	-0.1980	61.679
240.370	948.87	-4.6462	-0.1980	61.728
240.412	948.87	-4.6464	-0.1981	61.770
240.453	948.88	-4.6467	-0.1981	61.796
240.495	948.88	-4.6471	-0.1981	61.821
240.537	948.88	-4.6476	-0.1981	61.850
240.578	948.88	-4.6481	-0.1981	61.881
240.620	948.88	-4.6485	-0.1981	61.907
240.662	948.88	-4.6488	-0.1982	61.931
240.703	948.88	-4.6491	-0.1982	61.969
240.745	948.88	-4.6494	-0.1982	62.008
240.787	948.88	-4.6496	-0.1982	62.041
240.828	948.89	-4.6498	-0.1982	62.070
240.870	948.89	-4.6500	-0.1982	62.093
240.912	948.89	-4.6503	-0.1982	62.117
240.953	948.89	-4.6506	-0.1982	62.144
240.995	948.89	-4.6510	-0.1983	62.176
241.037	948.89	-4.6515	-0.1983	62.204
241.078	948.89	-4.6519	-0.1983	62.225
241.120	948.89	-4.6521	-0.1983	62.248
241.162	948.89	-4.6524	-0.1983	62.269
241.203	948.89	-4.6528	-0.1983	62.290
241.245	948.90	-4.6531	-0.1983	62.320
241.287	948.90	-4.6535	-0.1984	62.348
241.328	948.90	-4.6539	-0.1984	62.377
241.370	948.90	-4.6542	-0.1984	62.411
241.412	948.90	-4.6545	-0.1984	62.452
241.453	948.90	-4.6548	-0.1984	62.485
241.495	948.90	-4.6552	-0.1984	62.499
241.537	948.90	-4.6556	-0.1984	62.516
241.578	948.90	-4.6560	-0.1985	62.549
241.620		-4.6562	-0.1985
241.653		-4.6564	-0.1985