Folder: tga_data_analysis/PSO Kinetics/data (part 7)

File: WF115_1.txt
Filename	WF115_1
Instrument name	0650-0369 (192.168.1.2)
Operator	ca527
rundate	11/24/2022
Sample name	WF115_1
proceduresegments	Select Gas: Gas 1 ; Ramp 10.00 °C/min to 110.00 °C; Isothermal 30.0 min; Ramp 10.00 °C/min to 900.00 °C; Isothermal 30.0 min; Select Gas: Gas 2 ; Ramp 10.00 °C/min to 950.00 °C; Isothermal 10.0 min; Data Off ; Equilibrate 30.00 °C
[step]
Ramp 10.00 °C/min to 110.00 °C
Time	Temperature	Weight	Weight	Heat Flow
min	°C	%	mg	mW
0.003		100.0083	4.3790
0.037		99.9982	4.3786
0.070	22.48	99.9146	4.3749	-25.328
0.103	22.55	99.7893	4.3694	-25.275
0.137	22.62	99.7529	4.3678	-25.241
0.170	22.70	99.7360	4.3671	-25.214
0.203	22.77	99.7188	4.3664	-25.192
0.237	22.84	99.7003	4.3655	-25.176
0.270	22.92	99.6799	4.3646	-25.164
0.303	22.99	99.6580	4.3637	-25.156
0.337	23.07	99.6342	4.3626	-25.150
0.370	23.16	99.6082	4.3615	-25.146
0.403	23.25	99.5797	4.3603	-25.148
0.437	23.34	99.5486	4.3589	-25.155
0.470	23.45	99.5155	4.3574	-25.169
0.503	23.56	99.4805	4.3559	-25.193
0.537	23.68	99.4439	4.3543	-25.226
0.570	23.81	99.4060	4.3527	-25.272
0.603	23.95	99.3671	4.3509	-25.320
0.637	24.09	99.3273	4.3492	-25.367
0.670	24.25	99.2869	4.3474	-25.415
0.703	24.41	99.2462	4.3457	-25.471
0.737	24.59	99.2055	4.3439	-25.526
0.770	24.77	99.1649	4.3421	-25.581
0.803	24.96	99.1248	4.3403	-25.637
0.837	25.16	99.0853	4.3386	-25.694
0.870	25.37	99.0465	4.3369	-25.750
0.903	25.59	99.0087	4.3353	-25.806
0.937	25.82	98.9719	4.3336	-25.852
0.970	26.05	98.9362	4.3321	-25.889
1.003	26.30	98.9016	4.3306	-25.915
1.037	26.55	98.8681	4.3291	-25.933
1.070	26.81	98.8355	4.3277	-25.943
1.103	27.08	98.8036	4.3263	-25.943
1.137	27.37	98.7721	4.3249	-25.925
1.170	27.65	98.7410	4.3235	-25.879
1.203	27.95	98.7100	4.3222	-25.803
1.237	28.25	98.6786	4.3208	-25.705
1.270	28.57	98.6468	4.3194	-25.599
1.303	28.88	98.6144	4.3180	-25.481
1.337	29.21	98.5814	4.3165	-25.346
1.370	29.54	98.5478	4.3151	-25.197
1.403	29.88	98.5135	4.3136	-25.032
1.437	30.22	98.4784	4.3120	-24.852
1.470	30.57	98.4426	4.3105	-24.667
1.503	30.92	98.4060	4.3089	-24.470
1.537	31.28	98.3686	4.3072	-24.264
1.570	31.64	98.3304	4.3056	-24.049
1.603	32.01	98.2912	4.3038	-23.826
1.637	32.37	98.2512	4.3021	-23.596
1.670	32.74	98.2105	4.3003	-23.360
1.703	33.12	98.1691	4.2985	-23.116
1.737	33.49	98.1269	4.2966	-22.866
1.770	33.87	98.0839	4.2948	-22.614
1.803	34.25	98.0402	4.2929	-22.359
1.837	34.64	97.9959	4.2909	-22.099
1.870	35.02	97.9509	4.2889	-21.837
1.903	35.40	97.9052	4.2869	-21.570
1.937	35.79	97.8588	4.2849	-21.303
1.970	36.18	97.8118	4.2828	-21.032
2.003	36.56	97.7638	4.2807	-20.763
2.037	36.95	97.7151	4.2786	-20.493
2.070	37.34	97.6657	4.2765	-20.221
2.103	37.73	97.6158	4.2743	-19.944
2.137	38.11	97.5652	4.2721	-19.667
2.170	38.50	97.5140	4.2698	-19.393
2.203	38.89	97.4622	4.2675	-19.114
2.237	39.28	97.4099	4.2653	-18.837
2.270	39.66	97.3570	4.2629	-18.558
2.303	40.05	97.3036	4.2606	-18.283
2.337	40.43	97.2498	4.2582	-18.005
2.370	40.82	97.1953	4.2559	-17.728
2.403	41.20	97.1403	4.2534	-17.451
2.437	41.58	97.0848	4.2510	-17.179
2.470	41.96	97.0287	4.2486	-16.908
2.503	42.34	96.9721	4.2461	-16.636
2.537	42.72	96.9150	4.2436	-16.364
2.570	43.09	96.8575	4.2411	-16.096
2.603	43.47	96.7995	4.2385	-15.831
2.637	43.84	96.7413	4.2360	-15.566
2.670	44.22	96.6826	4.2334	-15.303
2.703	44.59	96.6235	4.2308	-15.039
2.737	44.96	96.5641	4.2282	-14.774
2.770	45.33	96.5044	4.2256	-14.512
2.803	45.69	96.4445	4.2230	-14.253
2.837	46.06	96.3844	4.2203	-13.994
2.870	46.43	96.3242	4.2177	-13.740
2.903	46.79	96.2638	4.2151	-13.486
2.937	47.15	96.2033	4.2124	-13.235
2.970	47.51	96.1426	4.2098	-12.983
3.003	47.87	96.0816	4.2071	-12.733
3.037	48.23	96.0205	4.2044	-12.484
3.070	48.59	95.9594	4.2017	-12.238
3.103	48.94	95.8983	4.1991	-11.995
3.137	49.30	95.8372	4.1964	-11.754
3.170	49.65	95.7761	4.1937	-11.514
3.203	50.01	95.7151	4.1910	-11.276
3.237	50.36	95.6542	4.1884	-11.038
3.270	50.71	95.5935	4.1857	-10.803
3.303	51.06	95.5328	4.1831	-10.568
3.337	51.41	95.4723	4.1804	-10.333
3.370	51.76	95.4120	4.1778	-10.102
3.403	52.10	95.3518	4.1751	-9.872
3.437	52.45	95.2918	4.1725	-9.645
3.470	52.80	95.2322	4.1699	-9.416
3.503	53.14	95.1730	4.1673	-9.190
3.537	53.49	95.1140	4.1647	-8.962
3.570	53.83	95.0552	4.1621	-8.737
3.603	54.17	94.9965	4.1596	-8.513
3.637	54.52	94.9382	4.1570	-8.291
3.670	54.86	94.8805	4.1545	-8.070
3.703	55.20	94.8233	4.1520	-7.851
3.737	55.54	94.7666	4.1495	-7.634
3.770	55.88	94.7104	4.1470	-7.419
3.803	56.23	94.6546	4.1446	-7.200
3.837	56.57	94.5993	4.1422	-6.984
3.870	56.91	94.5445	4.1398	-6.772
3.903	57.25	94.4901	4.1374	-6.557
3.937	57.59	94.4363	4.1350	-6.345
3.970	57.93	94.3830	4.1327	-6.134
4.003	58.27	94.3304	4.1304	-5.922
4.037	58.61	94.2783	4.1281	-5.713
4.070	58.95	94.2268	4.1259	-5.507
4.103	59.29	94.1760	4.1236	-5.298
4.137	59.63	94.1259	4.1215	-5.091
4.170	59.97	94.0764	4.1193	-4.884
4.203	60.31	94.0275	4.1171	-4.679
4.237	60.66	93.9792	4.1150	-4.475
4.270	61.00	93.9315	4.1129	-4.272
4.303	61.34	93.8843	4.1109	-4.070
4.337	61.68	93.8377	4.1088	-3.870
4.370	62.02	93.7918	4.1068	-3.670
4.403	62.36	93.7465	4.1048	-3.472
4.437	62.70	93.7019	4.1029	-3.278
4.470	63.04	93.6580	4.1010	-3.080
4.503	63.39	93.6145	4.0991	-2.884
4.537	63.73	93.5716	4.0972	-2.694
4.570	64.07	93.5291	4.0953	-2.504
4.603	64.41	93.4872	4.0935	-2.313
4.637	64.75	93.4460	4.0917	-2.124
4.670	65.10	93.4054	4.0899	-1.937
4.703	65.44	93.3653	4.0882	-1.757
4.737	65.78	93.3259	4.0864	-1.576
4.770	66.13	93.2868	4.0847	-1.393
4.803	66.47	93.2482	4.0830	-1.210
4.837	66.81	93.2100	4.0814	-1.030
4.870	67.16	93.1724	4.0797	-0.856
4.903	67.50	93.1353	4.0781	-0.683
4.937	67.84	93.0988	4.0765	-0.511
4.970	68.19	93.0628	4.0749	-0.339
5.003	68.53	93.0274	4.0734	-0.170
5.037	68.88	92.9924	4.0718	0.001
5.070	69.22	92.9581	4.0703	0.171
5.103	69.57	92.9243	4.0688	0.339
5.137	69.91	92.8910	4.0674	0.503
5.170	70.25	92.8581	4.0659	0.665
5.203	70.60	92.8257	4.0645	0.828
5.237	70.95	92.7937	4.0631	0.995
5.270	71.29	92.7622	4.0617	1.155
5.303	71.64	92.7312	4.0604	1.312
5.337	71.98	92.7007	4.0591	1.471
5.370	72.33	92.6707	4.0577	1.626
5.403	72.68	92.6413	4.0565	1.778
5.437	73.02	92.6125	4.0552	1.930
5.470	73.37	92.5841	4.0539	2.082
5.503	73.72	92.5562	4.0527	2.230
5.537	74.06	92.5288	4.0515	2.376
5.570	74.41	92.5018	4.0503	2.521
5.603	74.76	92.4752	4.0492	2.664
5.637	75.10	92.4491	4.0480	2.802
5.670	75.45	92.4235	4.0469	2.943
5.703	75.80	92.3983	4.0458	3.085
5.737	76.15	92.3736	4.0447	3.221
5.770	76.49	92.3492	4.0437	3.354
5.803	76.84	92.3251	4.0426	3.488
5.837	77.19	92.3015	4.0416	3.620
5.870	77.53	92.2783	4.0406	3.749
5.903	77.88	92.2554	4.0396	3.878
5.937	78.23	92.2330	4.0386	4.004
5.970	78.57	92.2110	4.0376	4.129
6.003	78.92	92.1893	4.0367	4.253
6.037	79.27	92.1679	4.0357	4.373
6.070	79.61	92.1469	4.0348	4.492
6.103	79.96	92.1262	4.0339	4.611
6.137	80.31	92.1060	4.0330	4.727
6.170	80.66	92.0863	4.0321	4.842
6.203	81.00	92.0668	4.0313	4.957
6.237	81.35	92.0477	4.0305	5.068
6.270	81.70	92.0288	4.0296	5.179
6.303	82.04	92.0103	4.0288	5.288
6.337	82.39	91.9920	4.0280	5.391
6.370	82.74	91.9741	4.0272	5.493
6.403	83.08	91.9565	4.0265	5.600
6.437	83.43	91.9394	4.0257	5.706
6.470	83.78	91.9225	4.0250	5.805
6.503	84.12	91.9060	4.0243	5.901
6.537	84.47	91.8897	4.0235	5.994
6.570	84.82	91.8736	4.0228	6.089
6.603	85.16	91.8577	4.0221	6.184
6.637	85.51	91.8421	4.0215	6.277
6.670	85.85	91.8269	4.0208	6.367
[...]
158.603	949.83	3.1494	0.1379	103.884
158.645	949.83	3.1494	0.1379	103.924
158.687	949.83	3.1493	0.1379	103.962
158.728	949.83	3.1492	0.1379	103.995
158.770	949.84	3.1491	0.1379	104.037
158.812	949.84	3.1490	0.1379	104.081
158.853	949.84	3.1489	0.1379	104.120
158.895	949.84	3.1486	0.1379	104.153
158.937	949.84	3.1484	0.1379	104.184
158.978	949.85	3.1482	0.1378	104.217
159.020	949.85	3.1479	0.1378	104.249
159.062	949.85	3.1477	0.1378	104.280
159.103	949.85	3.1473	0.1378	104.318
159.145	949.85	3.1469	0.1378	104.363
159.187	949.86	3.1464	0.1378	104.404
159.228	949.86	3.1461	0.1378	104.439
159.270	949.86	3.1458	0.1377	104.468
159.312	949.86	3.1456	0.1377	104.491
159.353	949.86	3.1453	0.1377	104.511
159.395	949.86	3.1451	0.1377	104.543
159.437	949.87	3.1449	0.1377	104.583
159.478	949.87	3.1448	0.1377	104.616
159.520	949.87	3.1445	0.1377	104.643
159.562	949.87	3.1443	0.1377	104.667
159.603	949.87	3.1440	0.1377	104.694
159.645	949.87	3.1438	0.1377	104.724
159.687	949.88	3.1435	0.1376	104.754
159.728	949.88	3.1432	0.1376	104.782
159.770	949.88	3.1428	0.1376	104.814
159.812	949.88	3.1425	0.1376	104.842
159.853	949.88	3.1422	0.1376	104.862
159.895	949.88	3.1420	0.1376	104.891
159.937	949.89	3.1417	0.1376	104.921
159.978	949.89	3.1415	0.1376	104.948
160.020	949.89	3.1412	0.1375	104.973
160.062	949.89	3.1409	0.1375	104.996
160.103	949.89	3.1406	0.1375	105.019
160.145	949.89	3.1403	0.1375	105.038
160.187	949.89	3.1401	0.1375	105.053
160.228	949.90	3.1397	0.1375	105.071
160.270	949.90	3.1386	0.1374	105.093
160.312	949.90	3.1356	0.1373	105.115
160.353	949.90	3.1317	0.1371	105.139
160.395	949.90	3.1285	0.1370	105.166
160.437	949.90	3.1260	0.1369	105.192
160.478	949.90	3.1245	0.1368	105.212
160.520	949.90	3.1236	0.1368	105.226
160.562	949.90	3.1229	0.1367	105.240
160.603	949.91	3.1226	0.1367	105.258
160.645	949.91	3.1226	0.1367	105.281
160.687	949.91	3.1226	0.1367	105.299
160.728	949.91	3.1228	0.1367	105.315
160.770	949.91	3.1230	0.1367	105.329
160.812	949.91	3.1232	0.1368	105.344
160.853	949.91	3.1234	0.1368	105.363
160.895	949.91	3.1237	0.1368	105.382
160.937	949.91	3.1241	0.1368	105.397
160.978	949.91	3.1244	0.1368	105.410
161.020	949.91	3.1248	0.1368	105.423
161.062	949.92	3.1252	0.1368	105.437
161.103	949.92	3.1256	0.1369	105.458
161.145	949.92	3.1259	0.1369	105.482
161.187	949.92	3.1262	0.1369	105.503
161.228	949.92	3.1265	0.1369	105.520
161.270	949.92	3.1267	0.1369	105.539
161.312	949.92	3.1268	0.1369	105.564
161.353	949.92	3.1270	0.1369	105.588
161.395	949.92	3.1271	0.1369	105.609
161.437	949.92	3.1272	0.1369	105.629
161.478	949.92	3.1273	0.1369	105.647
161.520	949.92	3.1272	0.1369	105.663
161.562	949.92	3.1271	0.1369	105.681
161.603	949.93	3.1270	0.1369	105.699
161.645	949.93	3.1269	0.1369	105.714
161.687	949.93	3.1268	0.1369	105.726
161.728	949.93	3.1268	0.1369	105.739
161.770	949.93	3.1266	0.1369	105.754
161.812	949.93	3.1264	0.1369	105.773
161.853	949.93	3.1262	0.1369	105.793
161.895	949.93	3.1259	0.1369	105.811
161.937	949.93	3.1256	0.1369	105.825
161.978	949.93	3.1254	0.1369	105.835
162.020	949.93	3.1252	0.1368	105.850
162.062	949.93	3.1250	0.1368	105.867
162.103	949.93	3.1248	0.1368	105.883
162.145	949.93	3.1245	0.1368	105.897
162.187	949.94	3.1241	0.1368	105.912
162.228	949.94	3.1238	0.1368	105.927
162.270	949.94	3.1235	0.1368	105.940
162.312	949.94	3.1230	0.1367	105.955
162.353	949.94	3.1227	0.1367	105.972
162.395	949.94	3.1224	0.1367	105.990
162.437	949.94	3.1221	0.1367	106.008
162.478	949.94	3.1219	0.1367	106.026
162.520	949.94	3.1216	0.1367	106.041
162.562	949.94	3.1212	0.1367	106.055
162.603	949.94	3.1209	0.1367	106.069
162.645		3.1207	0.1366
162.678		3.1206	0.1366

File: WF115_2.txt
Filename	WF115_2
Instrument name	0650-0369 (192.168.1.2)
Operator	ca527
rundate	11/24/2022
Sample name	WF115_2
proceduresegments	Select Gas: Gas 1 ; Ramp 10.00 °C/min to 110.00 °C; Isothermal 30.0 min; Ramp 10.00 °C/min to 900.00 °C; Isothermal 30.0 min; Select Gas: Gas 2 ; Ramp 10.00 °C/min to 950.00 °C; Isothermal 10.0 min; Data Off ; Equilibrate 30.00 °C
[step]
Ramp 10.00 °C/min to 110.00 °C
Time	Temperature	Weight	Weight	Heat Flow
min	°C	%	mg	mW
0.003		100.0110	5.8893
0.037		100.1105	5.8952
0.070	22.32	100.2092	5.9010	-25.843
0.103	22.47	100.2523	5.9035	-25.795
0.137	22.61	100.2601	5.9040	-25.760
0.170	22.75	100.2640	5.9042	-25.726
0.203	22.89	100.2650	5.9043	-25.691
0.237	23.03	100.2635	5.9042	-25.659
0.270	23.16	100.2596	5.9039	-25.635
0.303	23.29	100.2535	5.9036	-25.616
0.337	23.43	100.2452	5.9031	-25.600
0.370	23.55	100.2346	5.9025	-25.586
0.403	23.69	100.2222	5.9017	-25.567
0.437	23.82	100.2079	5.9009	-25.544
0.470	23.95	100.1918	5.8999	-25.525
0.503	24.09	100.1738	5.8989	-25.514
0.537	24.23	100.1539	5.8977	-25.507
0.570	24.38	100.1322	5.8964	-25.502
0.603	24.53	100.1090	5.8951	-25.501
0.637	24.69	100.0845	5.8936	-25.502
0.670	24.85	100.0592	5.8921	-25.505
0.703	25.02	100.0333	5.8906	-25.511
0.737	25.20	100.0071	5.8891	-25.518
0.770	25.38	99.9808	5.8875	-25.527
0.803	25.57	99.9545	5.8860	-25.538
0.837	25.77	99.9285	5.8844	-25.550
0.870	25.97	99.9028	5.8829	-25.560
0.903	26.18	99.8774	5.8814	-25.567
0.937	26.40	99.8524	5.8800	-25.572
0.970	26.62	99.8275	5.8785	-25.570
1.003	26.86	99.8030	5.8770	-25.549
1.037	27.10	99.7787	5.8756	-25.509
1.070	27.34	99.7546	5.8742	-25.455
1.103	27.60	99.7305	5.8728	-25.393
1.137	27.86	99.7063	5.8714	-25.320
1.170	28.13	99.6820	5.8699	-25.235
1.203	28.40	99.6575	5.8685	-25.140
1.237	28.68	99.6328	5.8670	-25.037
1.270	28.97	99.6077	5.8656	-24.921
1.303	29.26	99.5823	5.8641	-24.797
1.337	29.56	99.5566	5.8625	-24.668
1.370	29.87	99.5305	5.8610	-24.533
1.403	30.18	99.5041	5.8594	-24.394
1.437	30.49	99.4773	5.8579	-24.246
1.470	30.81	99.4501	5.8563	-24.089
1.503	31.14	99.4225	5.8546	-23.929
1.537	31.46	99.3944	5.8530	-23.760
1.570	31.80	99.3660	5.8513	-23.582
1.603	32.13	99.3371	5.8496	-23.402
1.637	32.47	99.3079	5.8479	-23.219
1.670	32.82	99.2782	5.8461	-23.029
1.703	33.16	99.2482	5.8444	-22.839
1.737	33.51	99.2176	5.8426	-22.647
1.770	33.86	99.1866	5.8408	-22.449
1.803	34.22	99.1553	5.8389	-22.248
1.837	34.58	99.1235	5.8370	-22.043
1.870	34.94	99.0913	5.8351	-21.830
1.903	35.30	99.0587	5.8332	-21.616
1.937	35.66	99.0258	5.8313	-21.400
1.970	36.03	98.9924	5.8293	-21.182
2.003	36.39	98.9586	5.8273	-20.963
2.037	36.76	98.9245	5.8253	-20.743
2.070	37.13	98.8901	5.8233	-20.521
2.103	37.50	98.8552	5.8212	-20.296
2.137	37.87	98.8199	5.8192	-20.067
2.170	38.24	98.7842	5.8171	-19.840
2.203	38.61	98.7480	5.8149	-19.612
2.237	38.98	98.7114	5.8128	-19.384
2.270	39.35	98.6746	5.8106	-19.153
2.303	39.72	98.6372	5.8084	-18.921
2.337	40.09	98.5995	5.8062	-18.687
2.370	40.47	98.5612	5.8039	-18.451
2.403	40.84	98.5226	5.8016	-18.213
2.437	41.21	98.4834	5.7993	-17.980
2.470	41.58	98.4439	5.7970	-17.750
2.503	41.95	98.4040	5.7947	-17.519
2.537	42.32	98.3637	5.7923	-17.287
2.570	42.69	98.3230	5.7899	-17.055
2.603	43.06	98.2818	5.7875	-16.821
2.637	43.42	98.2402	5.7850	-16.588
2.670	43.79	98.1982	5.7826	-16.357
2.703	44.16	98.1559	5.7801	-16.128
2.737	44.53	98.1133	5.7775	-15.900
2.770	44.89	98.0702	5.7750	-15.671
2.803	45.25	98.0267	5.7724	-15.447
2.837	45.61	97.9828	5.7699	-15.222
2.870	45.98	97.9387	5.7673	-14.995
2.903	46.34	97.8943	5.7647	-14.770
2.937	46.70	97.8495	5.7620	-14.548
2.970	47.06	97.8044	5.7594	-14.325
3.003	47.42	97.7588	5.7567	-14.104
3.037	47.77	97.7130	5.7540	-13.890
3.070	48.13	97.6668	5.7513	-13.676
3.103	48.49	97.6205	5.7485	-13.461
3.137	48.84	97.5739	5.7458	-13.245
3.170	49.19	97.5270	5.7430	-13.032
3.203	49.55	97.4800	5.7403	-12.819
3.237	49.90	97.4328	5.7375	-12.607
3.270	50.25	97.3852	5.7347	-12.398
3.303	50.60	97.3374	5.7319	-12.191
3.337	50.95	97.2894	5.7290	-11.983
3.370	51.30	97.2413	5.7262	-11.775
3.403	51.65	97.1929	5.7234	-11.570
3.437	51.99	97.1444	5.7205	-11.365
3.470	52.34	97.0959	5.7176	-11.163
3.503	52.69	97.0474	5.7148	-10.963
3.537	53.03	96.9988	5.7119	-10.766
3.570	53.38	96.9502	5.7091	-10.571
3.603	53.72	96.9014	5.7062	-10.377
3.637	54.07	96.8526	5.7033	-10.181
3.670	54.41	96.8038	5.7004	-9.989
3.703	54.75	96.7550	5.6976	-9.797
3.737	55.09	96.7061	5.6947	-9.606
3.770	55.44	96.6573	5.6918	-9.417
3.803	55.78	96.6084	5.6889	-9.228
3.837	56.12	96.5596	5.6861	-9.041
3.870	56.46	96.5109	5.6832	-8.855
3.903	56.80	96.4622	5.6803	-8.672
3.937	57.15	96.4137	5.6775	-8.486
3.970	57.49	96.3654	5.6746	-8.301
4.003	57.83	96.3172	5.6718	-8.115
4.037	58.17	96.2690	5.6689	-7.931
4.070	58.51	96.2210	5.6661	-7.747
4.103	58.85	96.1731	5.6633	-7.569
4.137	59.19	96.1255	5.6605	-7.390
4.170	59.53	96.0782	5.6577	-7.211
4.203	59.87	96.0310	5.6549	-7.032
4.237	60.20	95.9840	5.6522	-6.859
4.270	60.54	95.9372	5.6494	-6.688
4.303	60.88	95.8906	5.6467	-6.513
4.337	61.22	95.8443	5.6439	-6.336
4.370	61.57	95.7982	5.6412	-6.163
4.403	61.91	95.7524	5.6385	-5.990
4.437	62.25	95.7068	5.6358	-5.821
4.470	62.59	95.6616	5.6332	-5.652
4.503	62.93	95.6166	5.6305	-5.482
4.537	63.27	95.5718	5.6279	-5.316
4.570	63.60	95.5273	5.6253	-5.151
4.603	63.94	95.4831	5.6227	-4.986
4.637	64.29	95.4392	5.6201	-4.820
4.670	64.63	95.3958	5.6175	-4.653
4.703	64.97	95.3527	5.6150	-4.489
4.737	65.31	95.3100	5.6125	-4.327
4.770	65.65	95.2677	5.6100	-4.165
4.803	65.99	95.2258	5.6075	-4.001
4.837	66.33	95.1842	5.6051	-3.839
4.870	66.68	95.1430	5.6026	-3.679
4.903	67.02	95.1021	5.6002	-3.519
4.937	67.36	95.0617	5.5978	-3.359
4.970	67.70	95.0215	5.5955	-3.200
5.003	68.05	94.9818	5.5931	-3.041
5.037	68.39	94.9425	5.5908	-2.883
5.070	68.73	94.9035	5.5885	-2.726
5.103	69.08	94.8649	5.5863	-2.572
5.137	69.42	94.8266	5.5840	-2.423
5.170	69.76	94.7888	5.5818	-2.271
5.203	70.11	94.7514	5.5796	-2.121
5.237	70.45	94.7143	5.5774	-1.969
5.270	70.80	94.6777	5.5752	-1.816
5.303	71.14	94.6415	5.5731	-1.668
5.337	71.49	94.6057	5.5710	-1.523
5.370	71.83	94.5704	5.5689	-1.376
5.403	72.18	94.5354	5.5669	-1.232
5.437	72.52	94.5008	5.5648	-1.088
5.470	72.87	94.4666	5.5628	-0.942
5.503	73.21	94.4329	5.5608	-0.796
5.537	73.56	94.3995	5.5589	-0.656
5.570	73.91	94.3666	5.5569	-0.516
5.603	74.25	94.3340	5.5550	-0.375
5.637	74.60	94.3018	5.5531	-0.233
5.670	74.95	94.2699	5.5512	-0.095
5.703	75.30	94.2386	5.5494	0.046
5.737	75.64	94.2075	5.5476	0.180
5.770	75.99	94.1770	5.5458	0.314
5.803	76.34	94.1469	5.5440	0.448
5.837	76.69	94.1172	5.5422	0.584
5.870	77.03	94.0880	5.5405	0.716
5.903	77.38	94.0592	5.5388	0.847
5.937	77.73	94.0308	5.5371	0.977
5.970	78.08	94.0027	5.5355	1.109
6.003	78.43	93.9750	5.5339	1.233
6.037	78.77	93.9476	5.5322	1.355
6.070	79.12	93.9206	5.5307	1.476
6.103	79.47	93.8941	5.5291	1.599
6.137	79.82	93.8680	5.5276	1.725
6.170	80.17	93.8422	5.5260	1.846
6.203	80.52	93.8167	5.5245	1.966
6.237	80.86	93.7918	5.5231	2.089
6.270	81.21	93.7673	5.5216	2.206
6.303	81.56	93.7430	5.5202	2.320
6.337	81.91	93.7190	5.5188	2.434
6.370	82.26	93.6954	5.5174	2.549
6.403	82.61	93.6721	5.5160	2.665
6.437	82.96	93.6493	5.5147	2.780
6.470	83.30	93.6268	5.5134	2.895
6.503	83.65	93.6047	5.5121	3.008
6.537	84.00	93.5828	5.5108	3.114
6.570	84.35	93.5612	5.5095	3.220
6.603	84.70	93.5401	5.5082	3.324
6.637	85.05	93.5193	5.5070	3.428
[...]
158.628	949.79	4.5490	0.2679	101.626
158.670	949.80	4.5487	0.2679	101.659
158.712	949.80	4.5484	0.2678	101.690
158.753	949.80	4.5482	0.2678	101.713
158.795	949.80	4.5479	0.2678	101.741
158.837	949.80	4.5476	0.2678	101.771
158.878	949.81	4.5473	0.2678	101.804
158.920	949.81	4.5471	0.2678	101.840
158.962	949.81	4.5468	0.2677	101.869
159.003	949.81	4.5465	0.2677	101.899
159.045	949.81	4.5462	0.2677	101.932
159.087	949.81	4.5460	0.2677	101.964
159.128	949.82	4.5459	0.2677	101.996
159.170	949.82	4.5457	0.2677	102.034
159.212	949.82	4.5454	0.2677	102.069
159.253	949.82	4.5451	0.2676	102.095
159.295	949.82	4.5450	0.2676	102.116
159.337	949.82	4.5449	0.2676	102.136
159.378	949.83	4.5447	0.2676	102.156
159.420	949.83	4.5444	0.2676	102.178
159.462	949.83	4.5442	0.2676	102.202
159.503	949.83	4.5440	0.2676	102.232
159.545	949.83	4.5437	0.2676	102.263
159.587	949.83	4.5435	0.2676	102.293
159.628	949.83	4.5433	0.2675	102.323
159.670	949.83	4.5432	0.2675	102.352
159.712	949.83	4.5430	0.2675	102.382
159.753	949.84	4.5428	0.2675	102.412
159.795	949.84	4.5426	0.2675	102.434
159.837	949.84	4.5425	0.2675	102.451
159.878	949.84	4.5423	0.2675	102.471
159.920	949.84	4.5421	0.2675	102.493
159.962	949.84	4.5418	0.2674	102.513
160.003	949.84	4.5415	0.2674	102.531
160.045	949.85	4.5412	0.2674	102.547
160.087	949.85	4.5409	0.2674	102.566
160.128	949.85	4.5407	0.2674	102.582
160.170	949.85	4.5405	0.2674	102.598
160.212	949.85	4.5404	0.2674	102.617
160.253	949.85	4.5401	0.2674	102.635
160.295	949.85	4.5398	0.2673	102.653
160.337	949.85	4.5396	0.2673	102.670
160.378	949.85	4.5393	0.2673	102.688
160.420	949.85	4.5391	0.2673	102.710
160.462	949.85	4.5388	0.2673	102.733
160.503	949.85	4.5386	0.2673	102.757
160.545	949.85	4.5384	0.2672	102.778
160.587	949.86	4.5381	0.2672	102.797
160.628	949.86	4.5378	0.2672	102.819
160.670	949.86	4.5375	0.2672	102.837
160.712	949.86	4.5373	0.2672	102.850
160.753	949.86	4.5371	0.2672	102.866
160.795	949.86	4.5369	0.2672	102.879
160.837	949.86	4.5365	0.2671	102.893
160.878	949.86	4.5362	0.2671	102.908
160.920	949.86	4.5360	0.2671	102.924
160.962	949.86	4.5358	0.2671	102.940
161.003	949.87	4.5356	0.2671	102.957
161.045	949.87	4.5354	0.2671	102.975
161.087	949.87	4.5352	0.2671	102.989
161.128	949.87	4.5350	0.2670	103.003
161.170	949.87	4.5348	0.2670	103.018
161.212	949.87	4.5347	0.2670	103.034
161.253	949.87	4.5345	0.2670	103.050
161.295	949.87	4.5344	0.2670	103.060
161.337	949.87	4.5342	0.2670	103.069
161.378	949.87	4.5340	0.2670	103.078
161.420	949.87	4.5337	0.2670	103.086
161.462	949.87	4.5334	0.2670	103.096
161.503	949.88	4.5332	0.2669	103.110
161.545	949.87	4.5329	0.2669	103.124
161.587	949.87	4.5327	0.2669	103.136
161.628	949.88	4.5324	0.2669	103.149
161.670	949.88	4.5321	0.2669	103.162
161.712	949.88	4.5317	0.2669	103.176
161.753	949.88	4.5314	0.2668	103.191
161.795	949.88	4.5311	0.2668	103.206
161.837	949.88	4.5310	0.2668	103.221
161.878	949.88	4.5308	0.2668	103.237
161.920	949.88	4.5306	0.2668	103.250
161.962	949.88	4.5304	0.2668	103.259
162.003	949.88	4.5302	0.2668	103.268
162.045	949.88	4.5299	0.2667	103.278
162.087	949.88	4.5296	0.2667	103.291
162.128	949.88	4.5293	0.2667	103.302
162.170	949.88	4.5291	0.2667	103.311
162.212	949.88	4.5289	0.2667	103.320
162.253	949.88	4.5286	0.2667	103.331
162.295	949.88	4.5282	0.2667	103.345
162.337	949.88	4.5281	0.2666	103.361
162.378	949.88	4.5279	0.2666	103.377
162.420	949.88	4.5276	0.2666	103.391
162.462	949.88	4.5274	0.2666	103.402
162.503	949.88	4.5272	0.2666	103.412
162.545	949.89	4.5270	0.2666	103.429
162.587	949.89	4.5268	0.2666	103.444
162.628	949.89	4.5266	0.2666	103.454
162.670		4.5263	0.2665
162.703		4.5261	0.2665