Folder: tga_data_analysis/PSO Kinetics/data (part 8)

File: WF115_3.txt
Filename	WF115_3
Instrument name	0650-0369 (192.168.1.2)
Operator	ca527
rundate	11/25/2022
Sample name	WF115_3
proceduresegments	Select Gas: Gas 1 ; Ramp 10.00 °C/min to 110.00 °C; Isothermal 30.0 min; Ramp 10.00 °C/min to 900.00 °C; Isothermal 30.0 min; Select Gas: Gas 2 ; Ramp 10.00 °C/min to 950.00 °C; Isothermal 10.0 min; Data Off ; Equilibrate 30.00 °C
[step]
Ramp 10.00 °C/min to 110.00 °C
Time	Temperature	Weight	Weight	Heat Flow
min	°C	%	mg	mW
0.003		100.0691	3.1891
0.037		100.3973	3.1996
0.070	22.39	100.5368	3.2040	-27.132
0.103	22.54	100.5033	3.2030	-26.986
0.137	22.69	100.4562	3.2015	-26.853
0.170	22.83	100.4132	3.2001	-26.730
0.203	22.97	100.3727	3.1988	-26.613
0.237	23.11	100.3342	3.1976	-26.505
0.270	23.25	100.2971	3.1964	-26.403
0.303	23.39	100.2608	3.1952	-26.307
0.337	23.52	100.2246	3.1941	-26.218
0.370	23.65	100.1882	3.1929	-26.131
0.403	23.79	100.1515	3.1918	-26.048
0.437	23.93	100.1143	3.1906	-25.968
0.470	24.07	100.0760	3.1894	-25.893
0.503	24.21	100.0363	3.1881	-25.824
0.537	24.36	99.9951	3.1868	-25.763
0.570	24.51	99.9528	3.1854	-25.711
0.603	24.67	99.9094	3.1841	-25.668
0.637	24.83	99.8654	3.1826	-25.629
0.670	25.00	99.8211	3.1812	-25.592
0.703	25.17	99.7768	3.1798	-25.553
0.737	25.35	99.7329	3.1784	-25.522
0.770	25.54	99.6896	3.1770	-25.495
0.803	25.74	99.6472	3.1757	-25.469
0.837	25.94	99.6057	3.1744	-25.435
0.870	26.14	99.5654	3.1731	-25.404
0.903	26.36	99.5262	3.1718	-25.367
0.937	26.58	99.4883	3.1706	-25.319
0.970	26.81	99.4515	3.1695	-25.259
1.003	27.05	99.4160	3.1683	-25.191
1.037	27.29	99.3816	3.1672	-25.114
1.070	27.54	99.3480	3.1662	-25.028
1.103	27.80	99.3150	3.1651	-24.930
1.137	28.07	99.2823	3.1641	-24.817
1.170	28.34	99.2499	3.1630	-24.694
1.203	28.62	99.2175	3.1620	-24.560
1.237	28.90	99.1851	3.1610	-24.420
1.270	29.19	99.1525	3.1599	-24.268
1.303	29.49	99.1196	3.1589	-24.110
1.337	29.80	99.0864	3.1578	-23.940
1.370	30.11	99.0528	3.1567	-23.760
1.403	30.42	99.0186	3.1557	-23.567
1.437	30.74	98.9840	3.1546	-23.367
1.470	31.07	98.9490	3.1534	-23.163
1.503	31.40	98.9135	3.1523	-22.949
1.537	31.73	98.8775	3.1512	-22.731
1.570	32.07	98.8412	3.1500	-22.509
1.603	32.41	98.8043	3.1488	-22.281
1.637	32.76	98.7669	3.1476	-22.048
1.670	33.10	98.7289	3.1464	-21.811
1.703	33.46	98.6905	3.1452	-21.568
1.737	33.81	98.6517	3.1440	-21.321
1.770	34.17	98.6124	3.1427	-21.068
1.803	34.53	98.5727	3.1415	-20.812
1.837	34.89	98.5327	3.1402	-20.556
1.870	35.26	98.4924	3.1389	-20.297
1.903	35.62	98.4518	3.1376	-20.037
1.937	35.99	98.4108	3.1363	-19.775
1.970	36.36	98.3695	3.1350	-19.508
2.003	36.73	98.3279	3.1337	-19.237
2.037	37.10	98.2861	3.1323	-18.965
2.070	37.48	98.2439	3.1310	-18.694
2.103	37.85	98.2014	3.1296	-18.420
2.137	38.22	98.1586	3.1283	-18.144
2.170	38.60	98.1156	3.1269	-17.869
2.203	38.98	98.0723	3.1255	-17.586
2.237	39.35	98.0286	3.1241	-17.307
2.270	39.73	97.9847	3.1227	-17.028
2.303	40.11	97.9405	3.1213	-16.755
2.337	40.48	97.8961	3.1199	-16.477
2.370	40.86	97.8514	3.1185	-16.195
2.403	41.24	97.8065	3.1170	-15.919
2.437	41.61	97.7614	3.1156	-15.644
2.470	41.99	97.7159	3.1141	-15.368
2.503	42.36	97.6702	3.1127	-15.090
2.537	42.73	97.6242	3.1112	-14.813
2.570	43.11	97.5781	3.1098	-14.532
2.603	43.48	97.5316	3.1083	-14.253
2.637	43.85	97.4849	3.1068	-13.975
2.670	44.23	97.4382	3.1053	-13.701
2.703	44.59	97.3913	3.1038	-13.428
2.737	44.96	97.3442	3.1023	-13.158
2.770	45.33	97.2971	3.1008	-12.886
2.803	45.70	97.2499	3.0993	-12.614
2.837	46.07	97.2027	3.0978	-12.347
2.870	46.43	97.1555	3.0963	-12.081
2.903	46.80	97.1081	3.0948	-11.815
2.937	47.16	97.0607	3.0933	-11.550
2.970	47.53	97.0132	3.0918	-11.287
3.003	47.89	96.9658	3.0902	-11.027
3.037	48.25	96.9182	3.0887	-10.768
3.070	48.61	96.8706	3.0872	-10.512
3.103	48.97	96.8228	3.0857	-10.258
3.137	49.33	96.7750	3.0842	-10.008
3.170	49.68	96.7274	3.0826	-9.755
3.203	50.04	96.6799	3.0811	-9.504
3.237	50.39	96.6324	3.0796	-9.258
3.270	50.75	96.5852	3.0781	-9.012
3.303	51.10	96.5380	3.0766	-8.770
3.337	51.45	96.4907	3.0751	-8.526
3.370	51.81	96.4435	3.0736	-8.287
3.403	52.16	96.3964	3.0721	-8.050
3.437	52.51	96.3495	3.0706	-7.818
3.470	52.86	96.3026	3.0691	-7.587
3.503	53.21	96.2559	3.0676	-7.356
3.537	53.55	96.2093	3.0661	-7.125
3.570	53.90	96.1628	3.0646	-6.897
3.603	54.25	96.1165	3.0632	-6.672
3.637	54.59	96.0703	3.0617	-6.451
3.670	54.94	96.0243	3.0602	-6.231
3.703	55.28	95.9785	3.0588	-6.014
3.737	55.63	95.9331	3.0573	-5.798
3.770	55.97	95.8878	3.0559	-5.581
3.803	56.32	95.8428	3.0544	-5.366
3.837	56.66	95.7979	3.0530	-5.157
3.870	57.00	95.7533	3.0516	-4.949
3.903	57.35	95.7089	3.0502	-4.741
3.937	57.69	95.6648	3.0488	-4.540
3.970	58.03	95.6209	3.0474	-4.342
4.003	58.37	95.5771	3.0460	-4.141
4.037	58.71	95.5335	3.0446	-3.940
4.070	59.05	95.4903	3.0432	-3.743
4.103	59.39	95.4473	3.0418	-3.548
4.137	59.74	95.4045	3.0405	-3.354
4.170	60.08	95.3622	3.0391	-3.164
4.203	60.42	95.3203	3.0378	-2.976
4.237	60.76	95.2785	3.0365	-2.790
4.270	61.10	95.2370	3.0351	-2.605
4.303	61.44	95.1959	3.0338	-2.420
4.337	61.78	95.1552	3.0325	-2.235
4.370	62.12	95.1149	3.0313	-2.048
4.403	62.46	95.0748	3.0300	-1.865
4.437	62.80	95.0350	3.0287	-1.687
4.470	63.14	94.9954	3.0274	-1.515
4.503	63.48	94.9560	3.0262	-1.346
4.537	63.82	94.9170	3.0249	-1.173
4.570	64.16	94.8783	3.0237	-1.000
4.603	64.50	94.8401	3.0225	-0.835
4.637	64.84	94.8023	3.0213	-0.673
4.670	65.18	94.7649	3.0201	-0.508
4.703	65.52	94.7278	3.0189	-0.344
4.737	65.86	94.6910	3.0177	-0.181
4.770	66.20	94.6547	3.0166	-0.021
4.803	66.54	94.6187	3.0154	0.137
4.837	66.89	94.5831	3.0143	0.293
4.870	67.23	94.5477	3.0132	0.448
4.903	67.57	94.5127	3.0121	0.602
4.937	67.91	94.4781	3.0110	0.752
4.970	68.25	94.4438	3.0099	0.900
5.003	68.59	94.4099	3.0088	1.052
5.037	68.93	94.3763	3.0077	1.204
5.070	69.28	94.3431	3.0067	1.349
5.103	69.62	94.3102	3.0056	1.486
5.137	69.96	94.2775	3.0046	1.626
5.170	70.30	94.2452	3.0035	1.770
5.203	70.65	94.2134	3.0025	1.912
5.237	70.99	94.1819	3.0015	2.052
5.270	71.33	94.1506	3.0005	2.187
5.303	71.67	94.1195	2.9995	2.319
5.337	72.02	94.0888	2.9986	2.452
5.370	72.36	94.0585	2.9976	2.584
5.403	72.70	94.0286	2.9966	2.714
5.437	73.05	93.9991	2.9957	2.842
5.470	73.39	93.9699	2.9948	2.969
5.503	73.74	93.9411	2.9938	3.099
5.537	74.08	93.9126	2.9929	3.225
5.570	74.42	93.8844	2.9920	3.347
5.603	74.77	93.8566	2.9912	3.469
5.637	75.11	93.8292	2.9903	3.594
5.670	75.46	93.8021	2.9894	3.715
5.703	75.80	93.7754	2.9886	3.835
5.737	76.15	93.7490	2.9877	3.947
5.770	76.49	93.7228	2.9869	4.063
5.803	76.84	93.6969	2.9861	4.177
5.837	77.18	93.6714	2.9852	4.288
5.870	77.53	93.6461	2.9844	4.396
5.903	77.87	93.6211	2.9836	4.505
5.937	78.22	93.5964	2.9829	4.616
5.970	78.57	93.5722	2.9821	4.725
6.003	78.91	93.5483	2.9813	4.830
6.037	79.26	93.5247	2.9806	4.931
6.070	79.60	93.5014	2.9798	5.032
6.103	79.95	93.4783	2.9791	5.136
6.137	80.30	93.4556	2.9784	5.239
6.170	80.64	93.4332	2.9777	5.339
6.203	80.99	93.4110	2.9770	5.438
6.237	81.34	93.3890	2.9763	5.534
6.270	81.68	93.3674	2.9756	5.622
6.303	82.03	93.3460	2.9749	5.716
6.337	82.37	93.3248	2.9742	5.811
6.370	82.72	93.3040	2.9735	5.904
6.403	83.07	93.2837	2.9729	5.995
6.437	83.41	93.2637	2.9723	6.085
6.470	83.76	93.2440	2.9716	6.172
6.503	84.10	93.2244	2.9710	6.256
6.537	84.45	93.2051	2.9704	6.341
6.570	84.80	93.1860	2.9698	6.425
6.603	85.14	93.1672	2.9692	6.509
6.637	85.49	93.1489	2.9686	6.592
6.670	85.84	93.1308	2.9680	6.670
[...]
158.603	950.02	2.0257	0.0646	111.409
158.645	950.02	2.0254	0.0645	111.438
158.687	950.03	2.0251	0.0645	111.466
158.728	950.03	2.0249	0.0645	111.501
158.770	950.03	2.0246	0.0645	111.537
158.812	950.03	2.0241	0.0645	111.570
158.853	950.04	2.0239	0.0645	111.603
158.895	950.04	2.0237	0.0645	111.635
158.937	950.04	2.0235	0.0645	111.670
158.978	950.04	2.0234	0.0645	111.702
159.020	950.04	2.0233	0.0645	111.734
159.062	950.04	2.0233	0.0645	111.766
159.103	950.04	2.0231	0.0645	111.792
159.145	950.05	2.0228	0.0645	111.827
159.187	950.05	2.0226	0.0645	111.869
159.228	950.05	2.0223	0.0645	111.900
159.270	950.05	2.0220	0.0644	111.929
159.312	950.05	2.0217	0.0644	111.956
159.353	950.05	2.0215	0.0644	111.976
159.395	950.06	2.0211	0.0644	111.998
159.437	950.06	2.0209	0.0644	112.024
159.478	950.06	2.0206	0.0644	112.050
159.520	950.06	2.0202	0.0644	112.075
159.562	950.06	2.0198	0.0644	112.095
159.603	950.06	2.0196	0.0644	112.112
159.645	950.06	2.0194	0.0644	112.128
159.687	950.06	2.0191	0.0643	112.143
159.728	950.07	2.0189	0.0643	112.159
159.770	950.07	2.0187	0.0643	112.179
159.812	950.07	2.0183	0.0643	112.203
159.853	950.07	2.0178	0.0643	112.228
159.895	950.07	2.0173	0.0643	112.251
159.937	950.07	2.0169	0.0643	112.271
159.978	950.07	2.0166	0.0643	112.288
160.020	950.07	2.0163	0.0643	112.305
160.062	950.07	2.0162	0.0643	112.324
160.103	950.08	2.0160	0.0642	112.349
160.145	950.08	2.0157	0.0642	112.372
160.187	950.08	2.0152	0.0642	112.387
160.228	950.08	2.0147	0.0642	112.405
160.270	950.08	2.0146	0.0642	112.419
160.312	950.08	2.0145	0.0642	112.436
160.353	950.08	2.0141	0.0642	112.453
160.395	950.08	2.0136	0.0642	112.467
160.437	950.08	2.0134	0.0642	112.483
160.478	950.09	2.0133	0.0642	112.497
160.520	950.09	2.0132	0.0642	112.510
160.562	950.09	2.0129	0.0642	112.524
160.603	950.09	2.0126	0.0641	112.540
160.645	950.09	2.0121	0.0641	112.557
160.687	950.09	2.0115	0.0641	112.575
160.728	950.09	2.0111	0.0641	112.591
160.770	950.09	2.0108	0.0641	112.602
160.812	950.09	2.0105	0.0641	112.610
160.853	950.09	2.0102	0.0641	112.620
160.895	950.10	2.0098	0.0641	112.632
160.937	950.10	2.0093	0.0640	112.649
160.978	950.10	2.0089	0.0640	112.668
161.020	950.10	2.0084	0.0640	112.686
161.062	950.10	2.0082	0.0640	112.703
161.103	950.10	2.0079	0.0640	112.717
161.145	950.10	2.0076	0.0640	112.730
161.187	950.10	2.0072	0.0640	112.747
161.228	950.10	2.0070	0.0640	112.768
161.270	950.10	2.0067	0.0640	112.786
161.312	950.10	2.0065	0.0639	112.800
161.353	950.10	2.0063	0.0639	112.810
161.395	950.10	2.0060	0.0639	112.820
161.437	950.10	2.0058	0.0639	112.832
161.478	950.10	2.0058	0.0639	112.843
161.520	950.10	2.0057	0.0639	112.855
161.562	950.11	2.0055	0.0639	112.867
161.603	950.11	2.0056	0.0639	112.878
161.645	950.11	2.0056	0.0639	112.890
161.687	950.11	2.0054	0.0639	112.898
161.728	950.11	2.0052	0.0639	112.906
161.770	950.11	2.0048	0.0639	112.917
161.812	950.11	2.0045	0.0639	112.927
161.853	950.11	2.0041	0.0639	112.935
161.895	950.11	2.0035	0.0638	112.942
161.937	950.11	2.0028	0.0638	112.950
161.978	950.11	2.0025	0.0638	112.956
162.020	950.11	2.0023	0.0638	112.964
162.062	950.11	2.0021	0.0638	112.973
162.103	950.11	2.0020	0.0638	112.983
162.145	950.11	2.0019	0.0638	112.993
162.187	950.12	2.0017	0.0638	112.999
162.228	950.12	2.0016	0.0638	113.006
162.270	950.12	2.0017	0.0638	113.014
162.312	950.12	2.0016	0.0638	113.022
162.353	950.12	2.0012	0.0638	113.030
162.395	950.12	2.0010	0.0638	113.037
162.437	950.12	2.0009	0.0638	113.045
162.478	950.12	2.0008	0.0638	113.054
162.520	950.12	2.0006	0.0638	113.066
162.562	950.12	2.0004	0.0638	113.079
162.603	950.12	2.0001	0.0637	113.091
162.645		1.9998	0.0637
162.678		1.9995	0.0637