Folder: tga_data_analysis/PSO Kinetics/data (part 5)

File: softwood-20Kmin_3.txt
Filename	softwood-20Kmin_3
Instrument name	0650-0369 (192.168.1.2)
Operator	ca527
rundate	1/9/2023
Sample name	softwood-20Kmin_3
proceduresegments	Select Gas: Gas 1 ; Ramp 10.00 °C/min to 110.00 °C; Isothermal 30.0 min; Ramp 20.00 °C/min to 900.00 °C; Isothermal 30.0 min; Select Gas: Gas 2 ; Ramp 10.00 °C/min to 950.00 °C; Isothermal 10.0 min; Data Off ; Equilibrate 30.00 °C
[step]
Ramp 10.00 °C/min to 110.00 °C
Time	Temperature	Weight	Weight	Heat Flow
min	°C	%	mg	mW
0.003		100.0294	5.2453
0.037		100.1581	5.2521
0.070	22.09	100.2157	5.2551	-28.540
0.103	22.25	100.2128	5.2549	-28.320
0.137	22.41	100.2044	5.2545	-28.106
0.170	22.57	100.1962	5.2541	-27.898
0.203	22.72	100.1883	5.2536	-27.699
0.237	22.87	100.1806	5.2532	-27.504
0.270	23.02	100.1731	5.2529	-27.312
0.303	23.17	100.1655	5.2525	-27.125
0.337	23.32	100.1574	5.2520	-26.951
0.370	23.47	100.1489	5.2516	-26.782
0.403	23.61	100.1400	5.2511	-26.617
0.437	23.76	100.1306	5.2506	-26.460
0.470	23.91	100.1206	5.2501	-26.308
0.503	24.06	100.1097	5.2495	-26.164
0.537	24.21	100.0980	5.2489	-26.027
0.570	24.38	100.0856	5.2483	-25.901
0.603	24.54	100.0726	5.2476	-25.779
0.637	24.71	100.0592	5.2469	-25.668
0.670	24.89	100.0457	5.2462	-25.560
0.703	25.07	100.0320	5.2455	-25.458
0.737	25.26	100.0186	5.2447	-25.358
0.770	25.45	100.0056	5.2441	-25.262
0.803	25.65	99.9931	5.2434	-25.168
0.837	25.86	99.9813	5.2428	-25.075
0.870	26.07	99.9703	5.2422	-24.985
0.903	26.30	99.9599	5.2417	-24.891
0.937	26.52	99.9504	5.2412	-24.793
0.970	26.76	99.9416	5.2407	-24.690
1.003	27.00	99.9334	5.2403	-24.580
1.037	27.25	99.9257	5.2399	-24.463
1.070	27.50	99.9183	5.2395	-24.342
1.103	27.76	99.9114	5.2391	-24.214
1.137	28.03	99.9046	5.2388	-24.076
1.170	28.30	99.8978	5.2384	-23.927
1.203	28.59	99.8911	5.2381	-23.770
1.237	28.87	99.8842	5.2377	-23.604
1.270	29.17	99.8771	5.2373	-23.430
1.303	29.47	99.8697	5.2369	-23.246
1.337	29.77	99.8620	5.2365	-23.052
1.370	30.08	99.8542	5.2361	-22.851
1.403	30.40	99.8459	5.2357	-22.641
1.437	30.72	99.8374	5.2352	-22.423
1.470	31.04	99.8285	5.2348	-22.195
1.503	31.38	99.8192	5.2343	-21.960
1.537	31.71	99.8095	5.2338	-21.719
1.570	32.05	99.7995	5.2333	-21.472
1.603	32.39	99.7892	5.2327	-21.217
1.637	32.74	99.7785	5.2322	-20.957
1.670	33.09	99.7675	5.2316	-20.691
1.703	33.44	99.7564	5.2310	-20.422
1.737	33.80	99.7452	5.2304	-20.147
1.770	34.15	99.7336	5.2298	-19.872
1.803	34.52	99.7217	5.2292	-19.591
1.837	34.88	99.7094	5.2285	-19.308
1.870	35.24	99.6968	5.2279	-19.020
1.903	35.61	99.6839	5.2272	-18.729
1.937	35.98	99.6708	5.2265	-18.436
1.970	36.35	99.6576	5.2258	-18.141
2.003	36.72	99.6441	5.2251	-17.846
2.037	37.10	99.6303	5.2244	-17.550
2.070	37.47	99.6162	5.2236	-17.251
2.103	37.85	99.6018	5.2229	-16.952
2.137	38.22	99.5872	5.2221	-16.656
2.170	38.60	99.5723	5.2213	-16.357
2.203	38.98	99.5573	5.2206	-16.056
2.237	39.35	99.5421	5.2198	-15.759
2.270	39.73	99.5265	5.2189	-15.459
2.303	40.11	99.5107	5.2181	-15.159
2.337	40.48	99.4947	5.2173	-14.863
2.370	40.86	99.4784	5.2164	-14.574
2.403	41.24	99.4618	5.2156	-14.283
2.437	41.61	99.4450	5.2147	-13.993
2.470	41.99	99.4280	5.2138	-13.702
2.503	42.36	99.4107	5.2129	-13.414
2.537	42.74	99.3931	5.2120	-13.128
2.570	43.11	99.3753	5.2110	-12.845
2.603	43.48	99.3571	5.2101	-12.562
2.637	43.86	99.3387	5.2091	-12.277
2.670	44.23	99.3200	5.2081	-11.995
2.703	44.60	99.3011	5.2071	-11.719
2.737	44.96	99.2819	5.2061	-11.449
2.770	45.33	99.2623	5.2051	-11.179
2.803	45.70	99.2426	5.2041	-10.915
2.837	46.07	99.2225	5.2030	-10.657
2.870	46.43	99.2022	5.2019	-10.399
2.903	46.79	99.1816	5.2009	-10.144
2.937	47.16	99.1609	5.1998	-9.887
2.970	47.52	99.1399	5.1987	-9.632
3.003	47.88	99.1185	5.1976	-9.379
3.037	48.24	99.0969	5.1964	-9.133
3.070	48.60	99.0751	5.1953	-8.889
3.103	48.96	99.0531	5.1941	-8.648
3.137	49.31	99.0309	5.1930	-8.409
3.170	49.67	99.0085	5.1918	-8.176
3.203	50.02	98.9858	5.1906	-7.946
3.237	50.38	98.9629	5.1894	-7.720
3.270	50.73	98.9398	5.1882	-7.495
3.303	51.08	98.9164	5.1870	-7.274
3.337	51.43	98.8928	5.1857	-7.052
3.370	51.78	98.8690	5.1845	-6.833
3.403	52.13	98.8450	5.1832	-6.615
3.437	52.48	98.8209	5.1819	-6.407
3.470	52.82	98.7966	5.1807	-6.201
3.503	53.17	98.7722	5.1794	-5.997
3.537	53.51	98.7478	5.1781	-5.796
3.570	53.86	98.7233	5.1768	-5.597
3.603	54.20	98.6986	5.1755	-5.397
3.637	54.55	98.6737	5.1742	-5.205
3.670	54.89	98.6486	5.1729	-5.014
3.703	55.23	98.6234	5.1716	-4.823
3.737	55.58	98.5981	5.1703	-4.634
3.770	55.92	98.5727	5.1689	-4.448
3.803	56.26	98.5472	5.1676	-4.263
3.837	56.60	98.5218	5.1663	-4.082
3.870	56.94	98.4964	5.1649	-3.903
3.903	57.28	98.4710	5.1636	-3.724
3.937	57.62	98.4455	5.1623	-3.548
3.970	57.96	98.4199	5.1609	-3.375
4.003	58.30	98.3943	5.1596	-3.206
4.037	58.64	98.3687	5.1582	-3.039
4.070	58.98	98.3431	5.1569	-2.871
4.103	59.32	98.3176	5.1556	-2.704
4.137	59.66	98.2921	5.1542	-2.539
4.170	59.99	98.2667	5.1529	-2.377
4.203	60.33	98.2415	5.1516	-2.213
4.237	60.67	98.2164	5.1502	-2.050
4.270	61.01	98.1913	5.1489	-1.895
4.303	61.35	98.1663	5.1476	-1.743
4.337	61.68	98.1414	5.1463	-1.592
4.370	62.02	98.1166	5.1450	-1.437
4.403	62.36	98.0919	5.1437	-1.285
4.437	62.70	98.0673	5.1424	-1.135
4.470	63.03	98.0428	5.1411	-0.986
4.503	63.37	98.0185	5.1399	-0.837
4.537	63.71	97.9942	5.1386	-0.687
4.570	64.05	97.9702	5.1373	-0.543
4.603	64.39	97.9462	5.1361	-0.400
4.637	64.73	97.9225	5.1348	-0.260
4.670	65.07	97.8991	5.1336	-0.121
4.703	65.40	97.8758	5.1324	0.020
4.737	65.74	97.8528	5.1312	0.160
4.770	66.08	97.8300	5.1300	0.298
4.803	66.42	97.8074	5.1288	0.437
4.837	66.76	97.7850	5.1276	0.573
4.870	67.10	97.7629	5.1265	0.706
4.903	67.44	97.7409	5.1253	0.837
4.937	67.78	97.7192	5.1242	0.971
4.970	68.12	97.6977	5.1230	1.104
5.003	68.46	97.6764	5.1219	1.236
5.037	68.80	97.6555	5.1208	1.367
5.070	69.14	97.6348	5.1197	1.495
5.103	69.48	97.6143	5.1187	1.622
5.137	69.82	97.5942	5.1176	1.750
5.170	70.16	97.5743	5.1166	1.876
5.203	70.51	97.5546	5.1155	2.001
5.237	70.85	97.5351	5.1145	2.118
5.270	71.19	97.5158	5.1135	2.236
5.303	71.53	97.4970	5.1125	2.357
5.337	71.87	97.4786	5.1116	2.480
5.370	72.22	97.4604	5.1106	2.603
5.403	72.56	97.4425	5.1097	2.724
5.437	72.90	97.4248	5.1087	2.840
5.470	73.24	97.4074	5.1078	2.956
5.503	73.59	97.3903	5.1069	3.073
5.537	73.93	97.3734	5.1060	3.188
5.570	74.28	97.3568	5.1052	3.305
5.603	74.62	97.3404	5.1043	3.415
5.637	74.96	97.3243	5.1035	3.524
5.670	75.31	97.3084	5.1026	3.635
5.703	75.65	97.2928	5.1018	3.743
5.737	76.00	97.2776	5.1010	3.851
5.770	76.34	97.2626	5.1002	3.955
5.803	76.69	97.2479	5.0995	4.064
5.837	77.03	97.2335	5.0987	4.169
5.870	77.38	97.2193	5.0980	4.274
5.903	77.72	97.2054	5.0972	4.377
5.937	78.07	97.1919	5.0965	4.478
5.970	78.41	97.1786	5.0958	4.574
6.003	78.76	97.1657	5.0951	4.672
6.037	79.10	97.1529	5.0945	4.773
6.070	79.45	97.1405	5.0938	4.871
6.103	79.80	97.1284	5.0932	4.971
6.137	80.14	97.1166	5.0926	5.061
6.170	80.49	97.1050	5.0920	5.152
6.203	80.83	97.0937	5.0914	5.244
6.237	81.18	97.0827	5.0908	5.336
6.270	81.52	97.0720	5.0902	5.425
6.303	81.87	97.0617	5.0897	5.516
6.337	82.21	97.0516	5.0892	5.600
6.370	82.56	97.0416	5.0886	5.686
6.403	82.91	97.0318	5.0881	5.772
6.437	83.25	97.0224	5.0876	5.855
6.470	83.60	97.0131	5.0871	5.937
6.503	83.95	97.0040	5.0867	6.021
6.537	84.29	96.9952	5.0862	6.100
6.570	84.64	96.9867	5.0858	6.175
6.603	84.98	96.9783	5.0853	6.251
6.637	85.33	96.9701	5.0849	6.333
6.670	85.68	96.9622	5.0845	6.413
[...]
119.203	949.44	-2.3669	-0.1241	86.976
119.245	949.44	-2.3671	-0.1241	87.009
119.287	949.44	-2.3673	-0.1241	87.047
119.328	949.44	-2.3678	-0.1242	87.090
119.370	949.45	-2.3682	-0.1242	87.129
119.412	949.45	-2.3684	-0.1242	87.161
119.453	949.45	-2.3686	-0.1242	87.194
119.495	949.45	-2.3689	-0.1242	87.237
119.537	949.45	-2.3691	-0.1242	87.278
119.578	949.46	-2.3695	-0.1243	87.307
119.620	949.46	-2.3699	-0.1243	87.332
119.662	949.46	-2.3703	-0.1243	87.354
119.703	949.46	-2.3706	-0.1243	87.379
119.745	949.46	-2.3709	-0.1243	87.413
119.787	949.46	-2.3713	-0.1243	87.446
119.828	949.46	-2.3716	-0.1244	87.475
119.870	949.47	-2.3720	-0.1244	87.509
119.912	949.47	-2.3724	-0.1244	87.543
119.953	949.47	-2.3728	-0.1244	87.571
119.995	949.47	-2.3730	-0.1244	87.600
120.037	949.47	-2.3733	-0.1245	87.628
120.078	949.47	-2.3736	-0.1245	87.653
120.120	949.48	-2.3737	-0.1245	87.679
120.162	949.48	-2.3739	-0.1245	87.702
120.203	949.48	-2.3742	-0.1245	87.726
120.245	949.48	-2.3745	-0.1245	87.755
120.287	949.48	-2.3748	-0.1245	87.781
120.328	949.48	-2.3750	-0.1245	87.805
120.370	949.48	-2.3754	-0.1246	87.830
120.412	949.48	-2.3757	-0.1246	87.857
120.453	949.48	-2.3760	-0.1246	87.884
120.495	949.49	-2.3763	-0.1246	87.919
120.537	949.49	-2.3766	-0.1246	87.953
120.578	949.49	-2.3769	-0.1246	87.976
120.620	949.49	-2.3772	-0.1247	87.993
120.662	949.49	-2.3776	-0.1247	88.010
120.703	949.49	-2.3779	-0.1247	88.026
120.745	949.49	-2.3782	-0.1247	88.045
120.787	949.50	-2.3785	-0.1247	88.064
120.828	949.50	-2.3790	-0.1247	88.083
120.870	949.50	-2.3795	-0.1248	88.100
120.912	949.50	-2.3799	-0.1248	88.114
120.953	949.50	-2.3801	-0.1248	88.132
120.995	949.50	-2.3804	-0.1248	88.155
121.037	949.50	-2.3806	-0.1248	88.173
121.078	949.50	-2.3808	-0.1248	88.189
121.120	949.50	-2.3811	-0.1249	88.207
121.162	949.51	-2.3813	-0.1249	88.222
121.203	949.51	-2.3816	-0.1249	88.237
121.245	949.51	-2.3820	-0.1249	88.253
121.287	949.51	-2.3824	-0.1249	88.269
121.328	949.51	-2.3829	-0.1250	88.289
121.370	949.51	-2.3833	-0.1250	88.310
121.412	949.51	-2.3836	-0.1250	88.334
121.453	949.51	-2.3838	-0.1250	88.357
121.495	949.51	-2.3841	-0.1250	88.377
121.537	949.51	-2.3843	-0.1250	88.392
121.578	949.51	-2.3845	-0.1250	88.403
121.620	949.51	-2.3848	-0.1251	88.413
121.662	949.51	-2.3851	-0.1251	88.426
121.703	949.51	-2.3855	-0.1251	88.448
121.745	949.52	-2.3858	-0.1251	88.472
121.787	949.52	-2.3859	-0.1251	88.487
121.828	949.52	-2.3862	-0.1251	88.495
121.870	949.52	-2.3864	-0.1251	88.506
121.912	949.52	-2.3866	-0.1251	88.519
121.953	949.52	-2.3868	-0.1252	88.532
121.995	949.52	-2.3871	-0.1252	88.543
122.037	949.52	-2.3874	-0.1252	88.554
122.078	949.52	-2.3878	-0.1252	88.563
122.120	949.52	-2.3882	-0.1252	88.575
122.162	949.52	-2.3885	-0.1252	88.590
122.203	949.52	-2.3889	-0.1253	88.603
122.245	949.52	-2.3892	-0.1253	88.615
122.287	949.52	-2.3895	-0.1253	88.630
122.328	949.52	-2.3898	-0.1253	88.644
122.370	949.53	-2.3901	-0.1253	88.659
122.412	949.53	-2.3904	-0.1253	88.677
122.453	949.53	-2.3906	-0.1254	88.691
122.495	949.53	-2.3909	-0.1254	88.702
122.537	949.53	-2.3913	-0.1254	88.715
122.578	949.53	-2.3917	-0.1254	88.728
122.620	949.53	-2.3921	-0.1254	88.742
122.662	949.53	-2.3925	-0.1255	88.758
122.703	949.53	-2.3928	-0.1255	88.773
122.745	949.53	-2.3932	-0.1255	88.788
122.787	949.53	-2.3935	-0.1255	88.806
122.828	949.53	-2.3938	-0.1255	88.824
122.870	949.53	-2.3942	-0.1255	88.842
122.912	949.53	-2.3945	-0.1256	88.858
122.953	949.53	-2.3948	-0.1256	88.868
122.995	949.53	-2.3952	-0.1256	88.877
123.037	949.53	-2.3956	-0.1256	88.888
123.078	949.54	-2.3960	-0.1256	88.897
123.120	949.54	-2.3964	-0.1257	88.906
123.162		-2.3966	-0.1257
123.195		-2.3968	-0.1257

File: softwood-50Kmin_1.txt
Filename	softwood-50Kmin_1
Instrument name	0650-0369 (192.168.1.2)
Operator	ca527
rundate	1/8/2023
Sample name	softwood-50Kmin_1
proceduresegments	Select Gas: Gas 1 ; Ramp 10.00 °C/min to 110.00 °C; Isothermal 30.0 min; Ramp 50.00 °C/min to 900.00 °C; Isothermal 30.0 min; Select Gas: Gas 2 ; Ramp 10.00 °C/min to 950.00 °C; Isothermal 10.0 min; Data Off ; Equilibrate 30.00 °C
[step]
Ramp 10.00 °C/min to 110.00 °C
Time	Temperature	Weight	Weight	Heat Flow
min	°C	%	mg	mW
0.003		99.9970	5.2782
0.037		100.0133	5.2790
0.070	20.06	100.0446	5.2807	-22.949
0.103	20.05	100.0635	5.2817	-22.957
0.137	20.04	100.0621	5.2816	-22.971
0.170	20.03	100.0564	5.2813	-22.991
0.203	20.02	100.0474	5.2809	-23.018
0.237	20.01	100.0352	5.2802	-23.058
0.270	20.02	100.0192	5.2794	-23.121
0.303	20.03	99.9987	5.2783	-23.189
0.337	20.05	99.9741	5.2770	-23.262
0.370	20.08	99.9466	5.2755	-23.334
0.403	20.11	99.9171	5.2740	-23.415
0.437	20.16	99.8867	5.2724	-23.505
0.470	20.23	99.8559	5.2707	-23.604
0.503	20.30	99.8249	5.2691	-23.708
0.537	20.39	99.7941	5.2675	-23.819
0.570	20.48	99.7636	5.2659	-23.933
0.603	20.59	99.7339	5.2643	-24.055
0.637	20.72	99.7055	5.2628	-24.183
0.670	20.85	99.6785	5.2614	-24.322
0.703	21.00	99.6532	5.2600	-24.468
0.737	21.15	99.6301	5.2588	-24.619
0.770	21.33	99.6093	5.2577	-24.771
0.803	21.51	99.5911	5.2568	-24.920
0.837	21.70	99.5753	5.2559	-25.064
0.870	21.91	99.5619	5.2552	-25.200
0.903	22.13	99.5507	5.2546	-25.326
0.937	22.37	99.5411	5.2541	-25.435
0.970	22.61	99.5329	5.2537	-25.526
1.003	22.86	99.5256	5.2533	-25.603
1.037	23.13	99.5189	5.2530	-25.664
1.070	23.41	99.5122	5.2526	-25.706
1.103	23.70	99.5055	5.2522	-25.733
1.137	24.00	99.4985	5.2519	-25.748
1.170	24.31	99.4912	5.2515	-25.754
1.203	24.63	99.4834	5.2511	-25.747
1.237	24.95	99.4752	5.2506	-25.724
1.270	25.28	99.4664	5.2502	-25.673
1.303	25.62	99.4570	5.2497	-25.601
1.337	25.97	99.4470	5.2492	-25.519
1.370	26.32	99.4365	5.2486	-25.435
1.403	26.68	99.4254	5.2480	-25.345
1.437	27.05	99.4138	5.2474	-25.242
1.470	27.42	99.4017	5.2468	-25.129
1.503	27.79	99.3890	5.2461	-25.008
1.537	28.17	99.3757	5.2454	-24.881
1.570	28.55	99.3620	5.2447	-24.744
1.603	28.94	99.3478	5.2439	-24.600
1.637	29.32	99.3331	5.2431	-24.452
1.670	29.72	99.3178	5.2423	-24.298
1.703	30.11	99.3021	5.2415	-24.134
1.737	30.51	99.2858	5.2407	-23.967
1.770	30.90	99.2692	5.2398	-23.796
1.803	31.30	99.2519	5.2389	-23.621
1.837	31.70	99.2342	5.2379	-23.441
1.870	32.10	99.2159	5.2370	-23.256
1.903	32.50	99.1972	5.2360	-23.064
1.937	32.90	99.1779	5.2350	-22.870
1.970	33.30	99.1581	5.2339	-22.672
2.003	33.70	99.1378	5.2328	-22.469
2.037	34.10	99.1170	5.2317	-22.260
2.070	34.50	99.0956	5.2306	-22.044
2.103	34.90	99.0737	5.2295	-21.830
2.137	35.30	99.0511	5.2283	-21.618
2.170	35.70	99.0280	5.2270	-21.405
2.203	36.10	99.0044	5.2258	-21.189
2.237	36.49	98.9802	5.2245	-20.970
2.270	36.89	98.9556	5.2232	-20.750
2.303	37.28	98.9303	5.2219	-20.529
2.337	37.67	98.9044	5.2205	-20.307
2.370	38.06	98.8778	5.2191	-20.082
2.403	38.44	98.8507	5.2177	-19.858
2.437	38.83	98.8229	5.2162	-19.638
2.470	39.21	98.7947	5.2147	-19.419
2.503	39.60	98.7659	5.2132	-19.196
2.537	39.98	98.7365	5.2117	-18.972
2.570	40.35	98.7066	5.2101	-18.748
2.603	40.73	98.6761	5.2085	-18.525
2.637	41.11	98.6453	5.2068	-18.303
2.670	41.48	98.6140	5.2052	-18.081
2.703	41.85	98.5823	5.2035	-17.861
2.737	42.22	98.5500	5.2018	-17.643
2.770	42.58	98.5173	5.2001	-17.420
2.803	42.95	98.4841	5.1983	-17.199
2.837	43.31	98.4506	5.1966	-16.982
2.870	43.67	98.4167	5.1948	-16.772
2.903	44.03	98.3824	5.1930	-16.559
2.937	44.39	98.3476	5.1911	-16.343
2.970	44.75	98.3124	5.1893	-16.129
3.003	45.10	98.2769	5.1874	-15.922
3.037	45.45	98.2411	5.1855	-15.715
3.070	45.80	98.2050	5.1836	-15.511
3.103	46.15	98.1685	5.1817	-15.304
3.137	46.50	98.1316	5.1797	-15.098
3.170	46.85	98.0945	5.1778	-14.895
3.203	47.20	98.0573	5.1758	-14.693
3.237	47.54	98.0198	5.1738	-14.492
3.270	47.89	97.9821	5.1718	-14.292
3.303	48.23	97.9441	5.1698	-14.097
3.337	48.57	97.9059	5.1678	-13.902
3.370	48.91	97.8675	5.1658	-13.707
3.403	49.25	97.8290	5.1638	-13.516
3.437	49.59	97.7905	5.1617	-13.326
3.470	49.93	97.7518	5.1597	-13.135
3.503	50.27	97.7130	5.1576	-12.947
3.537	50.60	97.6740	5.1556	-12.762
3.570	50.94	97.6349	5.1535	-12.577
3.603	51.28	97.5957	5.1514	-12.391
3.637	51.61	97.5565	5.1494	-12.210
3.670	51.95	97.5171	5.1473	-12.032
3.703	52.28	97.4777	5.1452	-11.853
3.737	52.62	97.4382	5.1431	-11.676
3.770	52.95	97.3988	5.1410	-11.500
3.803	53.29	97.3593	5.1390	-11.321
3.837	53.62	97.3199	5.1369	-11.149
3.870	53.95	97.2806	5.1348	-10.977
3.903	54.29	97.2419	5.1328	-10.806
3.937	54.62	97.2038	5.1308	-10.634
3.970	54.96	97.1660	5.1288	-10.466
4.003	55.29	97.1283	5.1268	-10.297
4.037	55.62	97.0906	5.1248	-10.130
4.070	55.96	97.0529	5.1228	-9.963
4.103	56.29	97.0153	5.1208	-9.798
4.137	56.62	96.9775	5.1188	-9.632
4.170	56.96	96.9400	5.1168	-9.470
4.203	57.29	96.9028	5.1149	-9.308
4.237	57.63	96.8658	5.1129	-9.145
4.270	57.97	96.8289	5.1110	-8.986
4.303	58.30	96.7922	5.1090	-8.828
4.337	58.64	96.7557	5.1071	-8.672
4.370	58.97	96.7192	5.1052	-8.515
4.403	59.31	96.6830	5.1033	-8.359
4.437	59.64	96.6470	5.1014	-8.202
4.470	59.98	96.6112	5.0995	-8.046
4.503	60.32	96.5757	5.0976	-7.893
4.537	60.66	96.5404	5.0957	-7.739
4.570	60.99	96.5056	5.0939	-7.585
4.603	61.33	96.4713	5.0921	-7.431
4.637	61.67	96.4375	5.0903	-7.282
4.670	62.01	96.4039	5.0885	-7.132
4.703	62.35	96.3704	5.0868	-6.980
4.737	62.69	96.3371	5.0850	-6.827
4.770	63.03	96.3040	5.0833	-6.677
4.803	63.36	96.2711	5.0815	-6.533
4.837	63.71	96.2386	5.0798	-6.387
4.870	64.05	96.2065	5.0781	-6.240
4.903	64.39	96.1747	5.0764	-6.091
4.937	64.73	96.1432	5.0748	-5.946
4.970	65.07	96.1121	5.0731	-5.799
5.003	65.41	96.0812	5.0715	-5.653
5.037	65.75	96.0506	5.0699	-5.510
5.070	66.09	96.0204	5.0683	-5.368
5.103	66.44	95.9904	5.0667	-5.229
5.137	66.78	95.9609	5.0651	-5.089
5.170	67.12	95.9316	5.0636	-4.947
5.203	67.47	95.9027	5.0621	-4.808
5.237	67.81	95.8742	5.0606	-4.666
5.270	68.15	95.8462	5.0591	-4.528
5.303	68.50	95.8184	5.0576	-4.394
5.337	68.84	95.7910	5.0562	-4.255
5.370	69.19	95.7640	5.0548	-4.118
5.403	69.53	95.7374	5.0534	-3.985
5.437	69.87	95.7111	5.0520	-3.854
5.470	70.22	95.6853	5.0506	-3.722
5.503	70.56	95.6598	5.0493	-3.588
5.537	70.91	95.6346	5.0479	-3.452
5.570	71.25	95.6096	5.0466	-3.319
5.603	71.60	95.5850	5.0453	-3.186
5.637	71.94	95.5610	5.0440	-3.055
5.670	72.29	95.5374	5.0428	-2.929
5.703	72.63	95.5142	5.0416	-2.802
5.737	72.98	95.4913	5.0404	-2.673
5.770	73.32	95.4688	5.0392	-2.543
5.803	73.67	95.4467	5.0380	-2.416
5.837	74.01	95.4249	5.0369	-2.291
5.870	74.36	95.4035	5.0357	-2.162
5.903	74.70	95.3825	5.0346	-2.038
5.937	75.05	95.3619	5.0335	-1.915
5.970	75.39	95.3417	5.0325	-1.791
6.003	75.74	95.3220	5.0314	-1.669
6.037	76.09	95.3025	5.0304	-1.554
6.070	76.43	95.2834	5.0294	-1.438
6.103	76.78	95.2648	5.0284	-1.318
6.137	77.12	95.2465	5.0274	-1.197
6.170	77.47	95.2286	5.0265	-1.080
6.203	77.82	95.2110	5.0256	-0.964
6.237	78.16	95.1938	5.0247	-0.851
6.270	78.51	95.1769	5.0238	-0.741
6.303	78.85	95.1603	5.0229	-0.631
6.337	79.20	95.1441	5.0220	-0.520
6.370	79.54	95.1283	5.0212	-0.413
6.403	79.89	95.1127	5.0204	-0.304
6.437	80.23	95.0976	5.0196	-0.193
6.470	80.58	95.0827	5.0188	-0.083
6.503	80.93	95.0681	5.0180	0.022
6.537	81.27	95.0538	5.0173	0.124
6.570	81.62	95.0399	5.0165	0.224
[...]
95.737	949.80	-8.4184	-0.4444	101.964
95.778	949.80	-8.4186	-0.4444	101.989
95.820	949.80	-8.4191	-0.4444	102.010
95.862	949.80	-8.4195	-0.4444	102.034
95.903	949.81	-8.4199	-0.4444	102.064
95.945	949.81	-8.4203	-0.4445	102.089
95.987	949.81	-8.4207	-0.4445	102.113
96.028	949.81	-8.4212	-0.4445	102.141
96.070	949.81	-8.4217	-0.4445	102.169
96.112	949.82	-8.4221	-0.4445	102.195
96.153	949.82	-8.4226	-0.4446	102.221
96.195	949.82	-8.4231	-0.4446	102.246
96.237	949.82	-8.4236	-0.4446	102.269
96.278	949.82	-8.4240	-0.4447	102.294
96.320	949.82	-8.4246	-0.4447	102.320
96.362	949.82	-8.4251	-0.4447	102.345
96.403	949.83	-8.4256	-0.4447	102.367
96.445	949.83	-8.4260	-0.4448	102.386
96.487	949.83	-8.4263	-0.4448	102.410
96.528	949.83	-8.4267	-0.4448	102.438
96.570	949.83	-8.4271	-0.4448	102.459
96.612	949.83	-8.4274	-0.4448	102.476
96.653	949.83	-8.4279	-0.4449	102.495
96.695	949.83	-8.4283	-0.4449	102.517
96.737	949.84	-8.4286	-0.4449	102.543
96.778	949.84	-8.4289	-0.4449	102.570
96.820	949.84	-8.4292	-0.4449	102.590
96.862	949.84	-8.4295	-0.4449	102.605
96.903	949.84	-8.4298	-0.4450	102.616
96.945	949.84	-8.4301	-0.4450	102.627
96.987	949.84	-8.4305	-0.4450	102.640
97.028	949.84	-8.4309	-0.4450	102.654
97.070	949.84	-8.4312	-0.4450	102.668
97.112	949.85	-8.4316	-0.4450	102.685
97.153	949.85	-8.4319	-0.4451	102.700
97.195	949.85	-8.4322	-0.4451	102.714
97.237	949.85	-8.4327	-0.4451	102.727
97.278	949.85	-8.4331	-0.4451	102.739
97.320	949.85	-8.4334	-0.4451	102.754
97.362	949.85	-8.4337	-0.4452	102.770
97.403	949.85	-8.4341	-0.4452	102.784
97.445	949.85	-8.4344	-0.4452	102.796
97.487	949.85	-8.4347	-0.4452	102.809
97.528	949.86	-8.4351	-0.4452	102.824
97.570	949.86	-8.4354	-0.4453	102.835
97.612	949.86	-8.4358	-0.4453	102.846
97.653	949.86	-8.4362	-0.4453	102.860
97.695	949.86	-8.4367	-0.4453	102.873
97.737	949.86	-8.4370	-0.4453	102.883
97.778	949.86	-8.4373	-0.4453	102.893
97.820	949.86	-8.4377	-0.4454	102.905
97.862	949.86	-8.4382	-0.4454	102.919
97.903	949.86	-8.4387	-0.4454	102.930
97.945	949.86	-8.4392	-0.4455	102.940
97.987	949.86	-8.4396	-0.4455	102.951
98.028	949.87	-8.4399	-0.4455	102.962
98.070	949.87	-8.4403	-0.4455	102.971
98.112	949.87	-8.4406	-0.4455	102.981
98.153	949.87	-8.4408	-0.4455	102.993
98.195	949.87	-8.4412	-0.4456	103.002
98.237	949.87	-8.4415	-0.4456	103.011
98.278	949.87	-8.4419	-0.4456	103.021
98.320	949.87	-8.4424	-0.4456	103.031
98.362	949.87	-8.4428	-0.4456	103.048
98.403	949.87	-8.4431	-0.4457	103.065
98.445	949.87	-8.4435	-0.4457	103.076
98.487	949.87	-8.4440	-0.4457	103.085
98.528	949.87	-8.4445	-0.4457	103.094
98.570	949.87	-8.4449	-0.4458	103.102
98.612	949.87	-8.4453	-0.4458	103.108
98.653	949.87	-8.4457	-0.4458	103.115
98.695	949.87	-8.4462	-0.4458	103.123
98.737	949.87	-8.4467	-0.4458	103.135
98.778	949.87	-8.4471	-0.4459	103.150
98.820	949.87	-8.4475	-0.4459	103.165
98.862	949.87	-8.4478	-0.4459	103.176
98.903	949.87	-8.4482	-0.4459	103.183
98.945	949.88	-8.4487	-0.4459	103.189
98.987	949.88	-8.4491	-0.4460	103.195
99.028	949.88	-8.4495	-0.4460	103.203
99.070	949.88	-8.4499	-0.4460	103.209
99.112	949.88	-8.4502	-0.4460	103.216
99.153	949.88	-8.4506	-0.4460	103.225
99.195	949.88	-8.4509	-0.4461	103.234
99.237	949.88	-8.4511	-0.4461	103.244
99.278	949.88	-8.4514	-0.4461	103.251
99.320	949.88	-8.4518	-0.4461	103.257
99.362	949.88	-8.4521	-0.4461	103.259
99.403	949.88	-8.4524	-0.4461	103.263
99.445	949.88	-8.4527	-0.4462	103.268
99.487	949.88	-8.4529	-0.4462	103.274
99.528	949.88	-8.4533	-0.4462	103.280
99.570	949.88	-8.4538	-0.4462	103.289
99.612	949.88	-8.4542	-0.4462	103.297
99.653	949.88	-8.4544	-0.4463	103.305
99.695		-8.4547	-0.4463
99.728		-8.4550	-0.4463