Folder: tga_data_analysis/examples/kas_kinetics

Note: README.md
# PyTGA - Thermogravimetric Analysis in Python

## Overview
PyTGA is a Python module designed for conducting and analyzing Thermogravimetric Analysis (TGA) experiments. It offers tools for loading, processing, and analyzing TGA data, focusing on proximate and oxidation analysis, solid distillation analysis, and deconvolution analysis.

## Features
- **Data Loading**: Supports loading TGA data from files.
- **Proximate Analysis**: Calculates moisture, ash, and volatile matter.
- **Oxidation Analysis**: Computes Ti, Tp, Tb, etc.
- **Solid Distillation Analysis**: Analyzes solid distillation over time.
- **Deconvolution Analysis**: Deconvolutes TGA curves for peak analysis.
- **Plotting and Visualization**: Functions for TGA data visualization.

File: PCOx50_1.txt
Filename	Ox50PC250_1
Instrument name	0650-0369 (192.168.1.2)
Operator	jla278
rundate	12/21/2022
Sample name	Ox50PC250_1
proceduresegments	Select Gas: Gas 2 ; Ramp 10.00 °C/min to 110.00 °C; Isothermal 30.0 min; Ramp 50.00 °C/min to 950.00 °C; Isothermal 5.0 min; Data Off ; Equilibrate 30.00 °C
[step]
Ramp 10.00 °C/min to 110.00 °C
Time	Temperature	Weight	Weight	Heat Flow
min	°C	%	mg	mW
0.003		100.1289	1.5992
0.037		100.6402	1.6073
0.070	22.17	100.8011	1.6099	-29.001
0.103	22.33	100.7933	1.6098	-28.819
0.137	22.48	100.7554	1.6092	-28.650
0.170	22.63	100.7116	1.6085	-28.481
0.203	22.78	100.6731	1.6079	-28.316
0.237	22.93	100.6406	1.6073	-28.152
0.270	23.07	100.6113	1.6069	-27.987
0.303	23.21	100.5829	1.6064	-27.829
0.337	23.36	100.5538	1.6059	-27.675
0.370	23.50	100.5234	1.6055	-27.526
0.403	23.64	100.4919	1.6050	-27.376
0.437	23.78	100.4592	1.6044	-27.231
0.470	23.93	100.4247	1.6039	-27.093
0.503	24.08	100.3886	1.6033	-26.964
0.537	24.24	100.3513	1.6027	-26.840
0.570	24.40	100.3136	1.6021	-26.723
0.603	24.57	100.2763	1.6015	-26.607
0.637	24.74	100.2401	1.6009	-26.495
0.670	24.92	100.2058	1.6004	-26.388
0.703	25.10	100.1735	1.5999	-26.281
0.737	25.30	100.1434	1.5994	-26.169
0.770	25.50	100.1153	1.5989	-26.056
0.803	25.70	100.0893	1.5985	-25.946
0.837	25.91	100.0651	1.5981	-25.828
0.870	26.13	100.0424	1.5978	-25.703
0.903	26.36	100.0211	1.5974	-25.570
0.937	26.59	100.0007	1.5971	-25.436
0.970	26.83	99.9806	1.5968	-25.301
1.003	27.08	99.9601	1.5965	-25.158
1.037	27.33	99.9391	1.5961	-25.008
1.070	27.59	99.9173	1.5958	-24.846
1.103	27.86	99.8950	1.5954	-24.674
1.137	28.13	99.8723	1.5951	-24.494
1.170	28.41	99.8495	1.5947	-24.306
1.203	28.69	99.8272	1.5943	-24.109
1.237	28.99	99.8055	1.5940	-23.902
1.270	29.28	99.7846	1.5937	-23.685
1.303	29.59	99.7645	1.5933	-23.459
1.337	29.90	99.7450	1.5930	-23.225
1.370	30.21	99.7259	1.5927	-22.983
1.403	30.53	99.7074	1.5924	-22.732
1.437	30.86	99.6892	1.5921	-22.479
1.470	31.19	99.6713	1.5919	-22.214
1.503	31.52	99.6535	1.5916	-21.944
1.537	31.86	99.6357	1.5913	-21.670
1.570	32.20	99.6177	1.5910	-21.394
1.603	32.55	99.5994	1.5907	-21.113
1.637	32.90	99.5811	1.5904	-20.824
1.670	33.25	99.5626	1.5901	-20.526
1.703	33.61	99.5437	1.5898	-20.226
1.737	33.97	99.5247	1.5895	-19.923
1.770	34.33	99.5058	1.5892	-19.617
1.803	34.69	99.4866	1.5889	-19.307
1.837	35.06	99.4670	1.5886	-18.999
1.870	35.43	99.4471	1.5883	-18.687
1.903	35.80	99.4272	1.5880	-18.373
1.937	36.17	99.4071	1.5876	-18.056
1.970	36.55	99.3867	1.5873	-17.734
2.003	36.92	99.3659	1.5870	-17.407
2.037	37.30	99.3448	1.5866	-17.081
2.070	37.67	99.3240	1.5863	-16.755
2.103	38.05	99.3035	1.5860	-16.430
2.137	38.43	99.2832	1.5857	-16.103
2.170	38.81	99.2630	1.5853	-15.773
2.203	39.19	99.2428	1.5850	-15.440
2.237	39.57	99.2225	1.5847	-15.113
2.270	39.95	99.2022	1.5844	-14.784
2.303	40.33	99.1819	1.5840	-14.456
2.337	40.71	99.1615	1.5837	-14.124
2.370	41.09	99.1413	1.5834	-13.794
2.403	41.47	99.1211	1.5831	-13.468
2.437	41.85	99.1012	1.5827	-13.138
2.470	42.22	99.0815	1.5824	-12.811
2.503	42.60	99.0617	1.5821	-12.488
2.537	42.98	99.0418	1.5818	-12.167
2.570	43.36	99.0222	1.5815	-11.846
2.603	43.73	99.0032	1.5812	-11.528
2.637	44.11	98.9846	1.5809	-11.210
2.670	44.48	98.9661	1.5806	-10.894
2.703	44.85	98.9478	1.5803	-10.576
2.737	45.23	98.9297	1.5800	-10.259
2.770	45.60	98.9116	1.5797	-9.948
2.803	45.97	98.8939	1.5794	-9.643
2.837	46.34	98.8763	1.5792	-9.338
2.870	46.71	98.8590	1.5789	-9.033
2.903	47.07	98.8420	1.5786	-8.734
2.937	47.44	98.8254	1.5783	-8.437
2.970	47.80	98.8090	1.5781	-8.140
3.003	48.17	98.7929	1.5778	-7.849
3.037	48.53	98.7770	1.5776	-7.558
3.070	48.89	98.7615	1.5773	-7.272
3.103	49.25	98.7466	1.5771	-6.985
3.137	49.61	98.7320	1.5769	-6.702
3.170	49.97	98.7177	1.5766	-6.425
3.203	50.33	98.7035	1.5764	-6.155
3.237	50.69	98.6894	1.5762	-5.886
3.270	51.04	98.6757	1.5760	-5.618
3.303	51.40	98.6623	1.5757	-5.349
3.337	51.75	98.6493	1.5755	-5.086
3.370	52.11	98.6365	1.5753	-4.829
3.403	52.46	98.6237	1.5751	-4.571
3.437	52.81	98.6112	1.5749	-4.314
3.470	53.16	98.5991	1.5747	-4.062
3.503	53.51	98.5874	1.5745	-3.812
3.537	53.86	98.5764	1.5744	-3.567
3.570	54.21	98.5655	1.5742	-3.326
3.603	54.56	98.5547	1.5740	-3.091
3.637	54.90	98.5442	1.5739	-2.856
3.670	55.25	98.5341	1.5737	-2.626
3.703	55.60	98.5240	1.5735	-2.394
3.737	55.94	98.5138	1.5734	-2.166
3.770	56.29	98.5040	1.5732	-1.941
3.803	56.63	98.4947	1.5731	-1.722
3.837	56.98	98.4860	1.5729	-1.507
3.870	57.32	98.4777	1.5728	-1.293
3.903	57.66	98.4699	1.5727	-1.080
3.937	58.01	98.4622	1.5725	-0.872
3.970	58.35	98.4546	1.5724	-0.665
4.003	58.69	98.4471	1.5723	-0.458
4.037	59.03	98.4400	1.5722	-0.257
4.070	59.37	98.4329	1.5721	-0.059
4.103	59.72	98.4260	1.5720	0.138
4.137	60.06	98.4193	1.5719	0.331
4.170	60.40	98.4129	1.5718	0.522
4.203	60.74	98.4067	1.5717	0.707
4.237	61.08	98.4009	1.5716	0.892
4.270	61.42	98.3955	1.5715	1.076
4.303	61.76	98.3901	1.5714	1.257
4.337	62.10	98.3847	1.5713	1.432
4.370	62.44	98.3795	1.5712	1.604
4.403	62.78	98.3747	1.5711	1.773
4.437	63.12	98.3700	1.5711	1.945
4.470	63.46	98.3656	1.5710	2.113
4.503	63.80	98.3612	1.5709	2.278
4.537	64.14	98.3569	1.5709	2.437
4.570	64.48	98.3526	1.5708	2.596
4.603	64.81	98.3487	1.5707	2.757
4.637	65.15	98.3452	1.5707	2.917
4.670	65.50	98.3418	1.5706	3.068
4.703	65.84	98.3386	1.5706	3.218
4.737	66.17	98.3355	1.5705	3.364
4.770	66.51	98.3324	1.5705	3.510
4.803	66.85	98.3291	1.5704	3.654
4.837	67.20	98.3257	1.5704	3.800
4.870	67.54	98.3225	1.5703	3.943
4.903	67.88	98.3193	1.5703	4.082
4.937	68.22	98.3161	1.5702	4.218
4.970	68.56	98.3132	1.5702	4.354
5.003	68.90	98.3107	1.5701	4.487
5.037	69.24	98.3085	1.5701	4.618
5.070	69.58	98.3063	1.5701	4.746
5.103	69.92	98.3043	1.5700	4.874
5.137	70.26	98.3024	1.5700	5.004
5.170	70.60	98.3005	1.5700	5.130
5.203	70.94	98.2988	1.5699	5.252
5.237	71.28	98.2973	1.5699	5.369
5.270	71.63	98.2958	1.5699	5.484
5.303	71.97	98.2945	1.5699	5.598
5.337	72.31	98.2929	1.5698	5.712
5.370	72.65	98.2915	1.5698	5.822
5.403	72.99	98.2903	1.5698	5.930
5.437	73.34	98.2892	1.5698	6.041
5.470	73.68	98.2881	1.5698	6.151
5.503	74.02	98.2869	1.5697	6.260
5.537	74.36	98.2857	1.5697	6.366
5.570	74.71	98.2844	1.5697	6.473
5.603	75.05	98.2833	1.5697	6.572
5.637	75.39	98.2824	1.5697	6.672
5.670	75.73	98.2815	1.5697	6.771
5.703	76.08	98.2805	1.5696	6.867
5.737	76.42	98.2796	1.5696	6.964
5.770	76.76	98.2790	1.5696	7.060
5.803	77.11	98.2783	1.5696	7.150
5.837	77.45	98.2778	1.5696	7.236
5.870	77.79	98.2771	1.5696	7.326
5.903	78.14	98.2762	1.5696	7.411
5.937	78.48	98.2754	1.5696	7.499
5.970	78.82	98.2748	1.5695	7.583
6.003	79.17	98.2741	1.5695	7.665
6.037	79.51	98.2736	1.5695	7.745
6.070	79.86	98.2730	1.5695	7.823
6.103	80.20	98.2724	1.5695	7.901
6.137	80.54	98.2720	1.5695	7.978
6.170	80.89	98.2717	1.5695	8.058
6.203	81.23	98.2712	1.5695	8.135
6.237	81.58	98.2706	1.5695	8.209
6.270	81.92	98.2701	1.5695	8.278
6.303	82.27	98.2697	1.5695	8.355
6.337	82.61	98.2694	1.5695	8.429
6.370	82.95	98.2691	1.5695	8.501
6.403	83.30	98.2690	1.5695	8.567
6.437	83.64	98.2689	1.5695	8.630
6.470	83.99	98.2688	1.5695	8.693
6.503	84.33	98.2687	1.5695	8.757
6.537	84.68	98.2687	1.5695	8.821
6.570	85.02	98.2688	1.5695	8.883
6.603	85.36	98.2687	1.5695	8.945
6.637	85.71	98.2683	1.5694	9.003
6.670	86.05	98.2678	1.5694	9.059
6.703	86.39	98.2674	1.5694	9.112
6.737	86.74	98.2671	1.5694	9.165
6.770	87.08	98.2667	1.5694	9.220
6.803	87.43	98.2663	1.5694	9.273
6.837	87.77	98.2661	1.5694	9.328
6.870	88.11	98.2659	1.5694	9.380
6.903	88.46	98.2655	1.5694	9.430
6.937	88.80	98.2653	1.5694	9.480
6.970	89.15	98.2654	1.5694	9.528
7.003	89.49	98.2656	1.5694	9.574
7.037	89.83	98.2657	1.5694	9.619
7.070	90.18	98.2657	1.5694	9.663
7.103	90.52	98.2655	1.5694	9.706
7.137	90.87	98.2654	1.5694	9.751
7.170	91.21	98.2656	1.5694	9.790
7.203	91.55	98.2661	1.5694	9.829
7.237	91.90	98.2664	1.5694	9.871
7.270	92.24	98.2664	1.5694	9.911
7.303	92.59	98.2666	1.5694	9.949
7.337	92.93	98.2667	1.5694	9.984
7.370	93.27	98.2667	1.5694	10.017
7.403	93.61	98.2667	1.5694	10.050
7.437	93.96	98.2667	1.5694	10.081
7.470	94.30	98.2668	1.5694	10.110
7.503	94.64	98.2669	1.5694	10.142
7.537	94.99	98.2671	1.5694	10.173
7.570	95.33	98.2672	1.5694	10.200
7.603	95.67	98.2675	1.5694	10.229
7.637	96.01	98.2677	1.5694	10.256
7.670	96.36	98.2676	1.5694	10.284
7.703	96.70	98.2673	1.5694	10.310
7.737	97.04	98.2674	1.5694	10.336
7.770	97.38	98.2675	1.5694	10.361
7.803	97.73	98.2676	1.5694	10.388
7.837	98.07	98.2678	1.5694	10.414
7.870	98.41	98.2681	1.5694	10.435
7.903	98.76	98.2688	1.5695	10.452
7.937	99.10	98.2691	1.5695	10.474
7.970	99.44	98.2689	1.5695	10.497
8.003	99.78	98.2688	1.5695	10.517
8.037	100.13	98.2689	1.5695	10.532
8.070	100.47	98.2692	1.5695	10.548
8.103	100.81	98.2695	1.5695	10.567
8.137	101.15	98.2700	1.5695	10.584
8.170	101.49	98.2703	1.5695	10.598
8.203	101.84	98.2706	1.5695	10.611
8.237	102.18	98.2708	1.5695	10.625
8.270	102.52	98.2709	1.5695	10.637
8.303	102.86	98.2711	1.5695	10.647
8.337	103.21	98.2715	1.5695	10.656
8.370	103.55	98.2719	1.5695	10.670
8.403	103.89	98.2720	1.5695	10.687
8.437	104.23	98.2722	1.5695	10.699
8.470	104.58	98.2724	1.5695	10.706
8.503	104.92	98.2727	1.5695	10.713
8.537	105.26	98.2732	1.5695	10.720
8.570	105.60	98.2739	1.5695	10.725
8.603	105.95	98.2746	1.5695	10.727
8.637	106.29	98.2751	1.5696	10.732
8.670	106.63	98.2756	1.5696	10.738
8.678	106.72	98.2757	1.5696	10.740

[step]
Isothermal 30.0 min
Time	Temperature	Weight	Weight	Heat Flow
min	°C	%	mg	mW
8.687	106.80	98.2758	1.5696	10.741
8.795	107.91	98.2765	1.5696	10.762
8.903	108.98	98.2777	1.5696	10.833
9.012	109.98	98.2776	1.5696	10.982
9.120	110.89	98.2764	1.5696	11.197
9.228	111.68	98.2734	1.5695	11.455
9.337	112.35	98.2701	1.5695	11.747
9.445	112.90	98.2659	1.5694	12.065
9.553	113.30	98.2618	1.5693	12.389
9.662	113.57	98.2556	1.5692	12.708
9.770	113.73	98.2482	1.5691	12.984
9.878	113.79	98.2413	1.5690	13.211
9.987	113.76	98.2342	1.5689	13.376
10.095	113.66	98.2267	1.5688	13.497
10.203	113.52	98.2189	1.5687	13.542
10.312	113.36	98.2121	1.5685	13.548
10.420	113.18	98.2081	1.5685	13.513
10.528	113.00	98.2049	1.5684	13.410
10.637	112.83	98.2030	1.5684	13.280
10.745	112.66	98.2007	1.5684	13.157
10.853	112.51	98.2003	1.5684	13.024
10.962	112.38	98.2004	1.5684	12.887
11.070	112.28	98.2007	1.5684	12.757
11.178	112.19	98.1996	1.5683	12.628
11.287	112.13	98.2001	1.5684	12.508
11.395	112.10	98.2015	1.5684	12.403
11.503	112.08	98.2026	1.5684	12.303
11.612	112.09	98.2032	1.5684	12.221
11.720	112.11	98.2041	1.5684	12.150
11.828	112.15	98.2047	1.5684	12.099
11.937	112.21	98.2044	1.5684	12.056
12.045	112.27	98.2040	1.5684	12.023
12.153	112.34	98.2045	1.5684	11.996
12.262	112.42	98.2047	1.5684	11.977
12.370	112.50	98.2060	1.5685	11.967
12.478	112.58	98.2062	1.5685	11.962
12.587	112.66	98.2058	1.5684	11.962
12.695	112.73	98.2051	1.5684	11.969
12.803	112.80	98.2048	1.5684	11.980
12.912	112.87	98.2036	1.5684	11.996
13.020	112.93	98.2040	1.5684	12.012
13.128	112.99	98.2033	1.5684	12.032
13.237	113.04	98.2024	1.5684	12.054
13.345	113.08	98.2016	1.5684	12.070
13.453	113.11	98.2013	1.5684	12.088
13.562	113.15	98.2014	1.5684	12.107
13.670	113.17	98.2011	1.5684	12.121
13.778	113.19	98.2008	1.5684	12.130
13.887	113.20	98.1999	1.5684	12.136
13.995	113.21	98.1996	1.5683	12.140
14.103	113.22	98.1998	1.5684	12.146
14.212	113.22	98.1997	1.5684	12.146
14.320	113.23	98.2003	1.5684	12.145
14.428	113.23	98.2001	1.5684	12.140
14.537	113.23	98.2002	1.5684	12.136
14.645	113.23	98.1996	1.5683	12.125
14.753	113.23	98.1994	1.5683	12.115
14.862	113.23	98.1992	1.5683	12.106
14.970	113.23	98.1985	1.5683	12.093
15.078	113.23	98.1983	1.5683	12.084
15.187	113.23	98.1974	1.5683	12.074
15.295	113.23	98.1976	1.5683	12.061
15.403	113.24	98.1977	1.5683	12.050
15.512	113.24	98.1982	1.5683	12.039
15.620	113.24	98.1981	1.5683	12.028
15.728	113.25	98.1977	1.5683	12.017
15.837	113.26	98.1971	1.5683	12.007
15.945	113.26	98.1966	1.5683	11.999
16.053	113.27	98.1963	1.5683	11.993
16.162	113.28	98.1968	1.5683	11.987
16.270	113.29	98.1971	1.5683	11.981
16.378	113.30	98.1974	1.5683	11.973
16.487	113.30	98.1976	1.5683	11.968
16.595	113.31	98.1982	1.5683	11.960
16.703	113.32	98.1982	1.5683	11.950
16.812	113.32	98.1986	1.5683	11.943
16.920	113.33	98.1986	1.5683	11.938
17.028	113.33	98.1990	1.5683	11.931
17.137	113.34	98.1991	1.5683	11.928
17.245	113.34	98.1984	1.5683	11.924
17.353	113.35	98.1988	1.5683	11.921
17.462	113.35	98.1986	1.5683	11.916
17.570	113.35	98.1979	1.5683	11.909
17.678	113.36	98.1982	1.5683	11.905
17.787	113.36	98.1986	1.5683	11.900
17.895	113.36	98.1975	1.5683	11.892
18.003	113.36	98.1976	1.5683	11.886
18.112	113.36	98.1985	1.5683	11.880
18.220	113.36	98.1983	1.5683	11.875
18.328	113.37	98.1988	1.5683	11.868
18.437	113.37	98.1990	1.5683	11.862
18.545	113.37	98.1992	1.5683	11.856
18.653	113.37	98.1995	1.5683	11.851
18.762	113.37	98.2003	1.5684	11.843
18.870	113.37	98.1998	1.5684	11.834
18.978	113.37	98.2004	1.5684	11.826
19.087	113.37	98.2004	1.5684	11.822
19.195	113.37	98.1999	1.5684	11.815
19.303	113.37	98.2001	1.5684	11.808
19.412	113.37	98.2001	1.5684	11.803
19.520	113.37	98.2002	1.5684	11.797
19.628	113.37	98.1992	1.5683	11.786
19.737	113.37	98.1991	1.5683	11.782
19.845	113.37	98.1989	1.5683	11.773
19.953	113.37	98.1988	1.5683	11.766
20.062	113.37	98.1989	1.5683	11.762
20.170	113.37	98.1989	1.5683	11.753
20.278	113.37	98.1992	1.5683	11.745
20.387	113.37	98.1992	1.5683	11.743
20.495	113.37	98.1990	1.5683	11.739
20.603	113.37	98.1991	1.5683	11.729
20.712	113.37	98.1995	1.5683	11.723
20.820	113.37	98.1999	1.5684	11.716
20.928	113.37	98.2003	1.5684	11.709
21.037	113.37	98.2008	1.5684	11.705
21.145	113.37	98.1999	1.5684	11.698
21.253	113.37	98.1998	1.5684	11.691
21.362	113.37	98.2004	1.5684	11.685
21.470	113.37	98.1999	1.5684	11.679
21.578	113.37	98.2003	1.5684	11.671
21.687	113.37	98.2005	1.5684	11.664
21.795	113.37	98.2005	1.5684	11.657
21.903	113.37	98.2011	1.5684	11.651
22.012	113.36	98.2011	1.5684	11.643
22.120	113.36	98.2015	1.5684	11.641
22.228	113.37	98.2016	1.5684	11.634
22.337	113.36	98.2014	1.5684	11.626
22.445	113.36	98.2022	1.5684	11.619
22.553	113.36	98.2017	1.5684	11.610
22.662	113.36	98.2010	1.5684	11.606
22.770	113.36	98.2009	1.5684	11.602
22.878	113.36	98.2014	1.5684	11.596
22.987	113.36	98.2009	1.5684	11.590
23.095	113.36	98.2007	1.5684	11.586
23.203	113.36	98.2002	1.5684	11.582
23.312	113.36	98.2014	1.5684	11.576
23.420	113.36	98.2025	1.5684	11.574
23.528	113.36	98.2026	1.5684	11.566
23.637	113.36	98.2027	1.5684	11.558
23.745	113.36	98.2028	1.5684	11.549
23.853	113.36	98.2020	1.5684	11.540
23.962	113.36	98.2020	1.5684	11.536
24.070	113.35	98.2023	1.5684	11.533
24.178	113.35	98.2027	1.5684	11.527
24.287	113.35	98.2023	1.5684	11.521
24.395	113.35	98.2023	1.5684	11.514
24.503	113.35	98.2026	1.5684	11.509
24.612	113.35	98.2019	1.5684	11.505
24.720	113.35	98.2033	1.5684	11.500
24.828	113.35	98.2034	1.5684	11.491
24.937	113.35	98.2039	1.5684	11.485
25.045	113.35	98.2039	1.5684	11.477
25.153	113.35	98.2037	1.5684	11.470
25.262	113.35	98.2049	1.5684	11.463
25.370	113.35	98.2055	1.5684	11.455
25.478	113.35	98.2041	1.5684	11.452
25.587	113.35	98.2047	1.5684	11.450
25.695	113.34	98.2056	1.5684	11.447
25.803	113.35	98.2057	1.5684	11.440
25.912	113.34	98.2061	1.5685	11.431
26.020	113.34	98.2057	1.5684	11.424
26.128	113.34	98.2055	1.5684	11.416
26.237	113.34	98.2063	1.5685	11.406
26.345	113.34	98.2058	1.5684	11.401
26.453	113.34	98.2055	1.5684	11.398
26.562	113.34	98.2062	1.5685	11.396
26.670	113.34	98.2067	1.5685	11.392
26.778	113.34	98.2069	1.5685	11.384
26.887	113.34	98.2075	1.5685	11.379
26.995	113.34	98.2075	1.5685	11.376
27.103	113.34	98.2077	1.5685	11.370
27.212	113.34	98.2079	1.5685	11.365
27.320	113.34	98.2085	1.5685	11.358
27.428	113.34	98.2081	1.5685	11.351
27.537	113.33	98.2077	1.5685	11.347
27.645	113.33	98.2078	1.5685	11.342
27.753	113.33	98.2079	1.5685	11.336
27.862	113.33	98.2080	1.5685	11.329
27.970	113.33	98.2086	1.5685	11.324
28.078	113.33	98.2090	1.5685	11.318
28.187	113.33	98.2097	1.5685	11.313
28.295	113.33	98.2089	1.5685	11.308
28.403	113.33	98.2089	1.5685	11.302
28.512	113.33	98.2094	1.5685	11.298
28.620	113.33	98.2100	1.5685	11.292
28.728	113.33	98.2101	1.5685	11.286
28.837	113.33	98.2104	1.5685	11.278
28.945	113.32	98.2095	1.5685	11.272
29.053	113.33	98.2096	1.5685	11.267
29.162	113.32	98.2104	1.5685	11.264
29.270	113.32	98.2115	1.5685	11.262
29.378	113.32	98.2111	1.5685	11.252
29.487	113.32	98.2114	1.5685	11.249
29.595	113.32	98.2121	1.5685	11.246
29.703	113.32	98.2116	1.5685	11.241
29.812	113.32	98.2114	1.5685	11.235
29.920	113.32	98.2118	1.5685	11.233
30.028	113.32	98.2122	1.5686	11.228
30.137	113.32	98.2119	1.5685	11.222
30.245	113.32	98.2119	1.5685	11.217
30.353	113.32	98.2119	1.5685	11.216
30.462	113.32	98.2122	1.5686	11.211
30.570	113.32	98.2118	1.5685	11.207
30.678	113.32	98.2108	1.5685	11.200
30.787	113.32	98.2109	1.5685	11.195
30.895	113.32	98.2111	1.5685	11.188
31.003	113.32	98.2123	1.5686	11.181
31.112	113.31	98.2119	1.5685	11.176
31.220	113.31	98.2124	1.5686	11.171
31.328	113.31	98.2127	1.5686	11.167
31.437	113.31	98.2129	1.5686	11.165
31.545	113.31	98.2127	1.5686	11.160
31.653	113.31	98.2129	1.5686	11.155
31.762	113.31	98.2127	1.5686	11.147
31.870	113.31	98.2133	1.5686	11.144
31.978	113.31	98.2133	1.5686	11.140
32.087	113.31	98.2125	1.5686	11.134
32.195	113.31	98.2133	1.5686	11.129
32.303	113.31	98.2137	1.5686	11.121
32.412	113.31	98.2142	1.5686	11.118
32.520	113.31	98.2145	1.5686	11.115
[...]
53.153	802.32	11.4337	0.1826	-95.036
53.220	805.65	11.4372	0.1827	-95.352
53.287	808.97	11.4407	0.1827	-95.657
53.353	812.30	11.4440	0.1828	-95.962
53.420	815.63	11.4474	0.1828	-96.255
53.487	818.96	11.4501	0.1829	-96.526
53.553	822.28	11.4525	0.1829	-96.787
53.620	825.61	11.4547	0.1829	-97.040
53.687	828.94	11.4576	0.1830	-97.284
53.753	832.26	11.4603	0.1830	-97.519
53.820	835.59	11.4628	0.1831	-97.734
53.887	838.92	11.4652	0.1831	-97.929
53.953	842.24	11.4678	0.1832	-98.117
54.020	845.57	11.4710	0.1832	-98.288
54.087	848.89	11.4738	0.1832	-98.432
54.153	852.22	11.4753	0.1833	-98.567
54.220	855.55	11.4761	0.1833	-98.687
54.287	858.87	11.4771	0.1833	-98.786
54.353	862.20	11.4784	0.1833	-98.856
54.420	865.52	11.4803	0.1834	-98.906
54.487	868.85	11.4815	0.1834	-98.951
54.553	872.17	11.4820	0.1834	-98.985
54.620	875.50	11.4826	0.1834	-99.007
54.687	878.83	11.4823	0.1834	-99.020
54.753	882.15	11.4822	0.1834	-99.020
54.820	885.48	11.4828	0.1834	-99.003
54.887	888.81	11.4823	0.1834	-98.965
54.953	892.14	11.4817	0.1834	-98.907
55.020	895.46	11.4809	0.1834	-98.831
55.087	898.79	11.4804	0.1834	-98.739
55.153	902.12	11.4795	0.1833	-98.629
55.220	905.45	11.4785	0.1833	-98.511
55.287	908.78	11.4771	0.1833	-98.367
55.353	912.11	11.4749	0.1833	-98.211
55.420	915.43	11.4727	0.1832	-98.048
55.478	918.34	11.4712	0.1832	-97.844

[step]
Isothermal 5.0 min
Time	Temperature	Weight	Weight	Heat Flow
min	°C	%	mg	mW
55.487	918.75	11.4710	0.1832	-97.744
55.512	919.97	11.4702	0.1832	-97.184
55.537	921.16	11.4694	0.1832	-96.152
55.562	922.30	11.4687	0.1832	-94.608
55.587	923.40	11.4683	0.1832	-92.714
55.612	924.44	11.4680	0.1832	-90.537
55.637	925.44	11.4680	0.1832	-88.107
55.662	926.37	11.4680	0.1832	-85.468
55.687	927.25	11.4679	0.1832	-82.646
55.712	928.06	11.4679	0.1832	-79.678
55.737	928.82	11.4679	0.1832	-76.588
55.762	929.51	11.4682	0.1832	-73.398
55.787	930.15	11.4687	0.1832	-70.132
55.812	930.74	11.4693	0.1832	-66.804
55.837	931.27	11.4697	0.1832	-63.443
55.862	931.76	11.4701	0.1832	-60.067
55.887	932.19	11.4702	0.1832	-56.696
55.912	932.59	11.4702	0.1832	-53.344
55.937	932.94	11.4702	0.1832	-50.015
55.962	933.26	11.4702	0.1832	-46.728
55.987	933.55	11.4705	0.1832	-43.495
56.012	933.80	11.4708	0.1832	-40.325
56.037	934.03	11.4710	0.1832	-37.228
56.062	934.24	11.4710	0.1832	-34.203
56.087	934.43	11.4710	0.1832	-31.251
56.112	934.60	11.4711	0.1832	-28.373
56.137	934.75	11.4714	0.1832	-25.574
56.162	934.90	11.4719	0.1832	-22.861
56.187	935.03	11.4724	0.1832	-20.230
56.212	935.15	11.4729	0.1832	-17.677
56.237	935.26	11.4734	0.1832	-15.202
56.262	935.37	11.4740	0.1833	-12.808
56.287	935.48	11.4748	0.1833	-10.496
56.312	935.58	11.4755	0.1833	-8.257
56.337	935.68	11.4764	0.1833	-6.096
56.362	935.77	11.4773	0.1833	-4.002
56.387	935.87	11.4783	0.1833	-1.975
56.412	935.97	11.4794	0.1833	-0.014
56.437	936.06	11.4805	0.1834	1.890
56.462	936.16	11.4816	0.1834	3.726
56.487	936.26	11.4828	0.1834	5.509
56.512	936.36	11.4840	0.1834	7.233
56.537	936.46	11.4851	0.1834	8.909
56.562	936.56	11.4861	0.1834	10.539
56.587	936.66	11.4871	0.1835	12.126
56.612	936.77	11.4882	0.1835	13.677
56.637	936.88	11.4895	0.1835	15.184
56.662	936.99	11.4907	0.1835	16.652
56.687	937.10	11.4921	0.1835	18.093
56.712	937.21	11.4934	0.1836	19.499
56.737	937.32	11.4948	0.1836	20.878
56.762	937.44	11.4964	0.1836	22.224
56.787	937.55	11.4981	0.1836	23.537
56.812	937.67	11.4998	0.1837	24.823
56.837	937.78	11.5014	0.1837	26.079
56.862	937.90	11.5028	0.1837	27.314
56.887	938.02	11.5041	0.1837	28.537
56.912	938.14	11.5054	0.1838	29.744
56.937	938.26	11.5067	0.1838	30.938
56.962	938.37	11.5080	0.1838	32.107
56.987	938.49	11.5093	0.1838	33.256
57.012	938.61	11.5105	0.1838	34.386
57.037	938.72	11.5117	0.1839	35.497
57.062	938.84	11.5128	0.1839	36.594
57.087	938.96	11.5140	0.1839	37.681
57.112	939.07	11.5151	0.1839	38.757
57.137	939.19	11.5162	0.1839	39.815
57.162	939.30	11.5174	0.1839	40.855
57.187	939.41	11.5185	0.1840	41.881
57.212	939.52	11.5196	0.1840	42.894
57.237	939.63	11.5207	0.1840	43.895
57.262	939.74	11.5217	0.1840	44.883
57.287	939.85	11.5226	0.1840	45.855
57.312	939.96	11.5234	0.1840	46.817
57.337	940.06	11.5244	0.1841	47.770
57.362	940.17	11.5254	0.1841	48.704
57.387	940.27	11.5265	0.1841	49.625
57.412	940.37	11.5274	0.1841	50.526
57.437	940.47	11.5283	0.1841	51.419
57.462	940.57	11.5291	0.1841	52.297
57.487	940.67	11.5297	0.1841	53.161
57.512	940.77	11.5304	0.1842	54.011
57.537	940.86	11.5310	0.1842	54.850
57.562	940.96	11.5319	0.1842	55.685
57.587	941.05	11.5328	0.1842	56.501
57.612	941.14	11.5337	0.1842	57.305
57.637	941.23	11.5346	0.1842	58.099
57.662	941.32	11.5355	0.1842	58.877
57.687	941.41	11.5362	0.1842	59.643
57.712	941.50	11.5368	0.1843	60.403
57.737	941.59	11.5372	0.1843	61.154
57.762	941.67	11.5376	0.1843	61.893
57.787	941.76	11.5381	0.1843	62.615
57.812	941.84	11.5386	0.1843	63.321
57.837	941.92	11.5391	0.1843	64.017
57.862	942.00	11.5397	0.1843	64.700
57.887	942.08	11.5405	0.1843	65.370
57.912	942.16	11.5413	0.1843	66.037
57.937	942.24	11.5420	0.1843	66.693
57.962	942.32	11.5425	0.1843	67.336
57.987	942.40	11.5430	0.1844	67.970
58.012	942.47	11.5434	0.1844	68.592
58.037	942.55	11.5441	0.1844	69.205
58.062	942.62	11.5446	0.1844	69.803
58.087	942.69	11.5450	0.1844	70.393
58.112	942.77	11.5454	0.1844	70.973
58.137	942.84	11.5457	0.1844	71.548
58.162	942.91	11.5462	0.1844	72.112
58.187	942.98	11.5467	0.1844	72.662
58.212	943.05	11.5473	0.1844	73.200
58.237	943.12	11.5478	0.1844	73.730
58.262	943.19	11.5481	0.1844	74.254
58.287	943.25	11.5482	0.1844	74.771
58.312	943.32	11.5484	0.1844	75.282
58.337	943.39	11.5486	0.1844	75.778
58.362	943.45	11.5488	0.1844	76.266
58.387	943.52	11.5490	0.1844	76.746
58.412	943.58	11.5492	0.1845	77.223
58.437	943.64	11.5492	0.1845	77.694
58.462	943.71	11.5491	0.1845	78.158
58.487	943.77	11.5491	0.1845	78.610
58.512	943.83	11.5491	0.1845	79.056
58.537	943.89	11.5492	0.1845	79.491
58.562	943.95	11.5494	0.1845	79.920
58.587	944.01	11.5495	0.1845	80.340
58.612	944.07	11.5498	0.1845	80.752
58.637	944.12	11.5501	0.1845	81.163
58.662	944.18	11.5504	0.1845	81.565
58.687	944.24	11.5507	0.1845	81.964
58.712	944.30	11.5509	0.1845	82.354
58.737	944.35	11.5511	0.1845	82.730
58.762	944.41	11.5513	0.1845	83.103
58.787	944.46	11.5515	0.1845	83.462
58.812	944.51	11.5516	0.1845	83.815
58.837	944.57	11.5516	0.1845	84.172
58.862	944.62	11.5516	0.1845	84.525
58.887	944.67	11.5515	0.1845	84.870
58.912	944.73	11.5514	0.1845	85.211
58.937	944.78	11.5514	0.1845	85.544
58.962	944.83	11.5514	0.1845	85.872
58.987	944.88	11.5516	0.1845	86.196
59.012	944.93	11.5519	0.1845	86.509
59.037	944.98	11.5520	0.1845	86.821
59.062	945.03	11.5521	0.1845	87.128
59.087	945.08	11.5522	0.1845	87.430
59.112	945.12	11.5522	0.1845	87.725
59.137	945.17	11.5522	0.1845	88.014
59.162	945.22	11.5521	0.1845	88.295
59.187	945.26	11.5520	0.1845	88.577
59.212	945.31	11.5521	0.1845	88.854
59.237	945.36	11.5523	0.1845	89.123
59.262	945.40	11.5523	0.1845	89.387
59.287	945.45	11.5523	0.1845	89.647
59.312	945.49	11.5522	0.1845	89.905
59.337	945.53	11.5522	0.1845	90.163
59.362	945.58	11.5522	0.1845	90.411
59.387	945.62	11.5523	0.1845	90.655
59.412	945.66	11.5523	0.1845	90.893
59.437	945.71	11.5523	0.1845	91.131
59.462	945.75	11.5521	0.1845	91.366
59.487	945.79	11.5520	0.1845	91.591
59.512	945.83	11.5519	0.1845	91.814
59.537	945.87	11.5519	0.1845	92.036
59.562	945.91	11.5519	0.1845	92.255
59.587	945.95	11.5519	0.1845	92.474
59.612	945.99	11.5517	0.1845	92.687
59.637	946.03	11.5515	0.1845	92.901
59.662	946.07	11.5513	0.1845	93.115
59.687	946.10	11.5511	0.1845	93.321
59.712	946.14	11.5508	0.1845	93.527
59.737	946.18	11.5505	0.1845	93.727
59.762	946.22	11.5503	0.1845	93.924
59.787	946.25	11.5502	0.1845	94.118
59.812	946.29	11.5501	0.1845	94.306
59.837	946.32	11.5500	0.1845	94.491
59.862	946.36	11.5497	0.1845	94.673
59.887	946.40	11.5494	0.1845	94.854
59.912	946.43	11.5491	0.1845	95.031
59.937	946.46	11.5489	0.1844	95.205
59.962	946.50	11.5487	0.1844	95.375
59.987	946.53	11.5485	0.1844	95.541
60.012	946.57	11.5483	0.1844	95.701
60.037	946.60	11.5482	0.1844	95.857
60.062	946.63	11.5480	0.1844	96.011
60.087	946.66	11.5477	0.1844	96.172
60.112	946.70	11.5473	0.1844	96.327
60.137	946.73	11.5470	0.1844	96.480
60.162	946.76	11.5471	0.1844	96.623
60.187	946.79	11.5473	0.1844	96.767
60.212	946.82	11.5474	0.1844	96.906
60.237	946.85	11.5474	0.1844	97.053
60.262	946.88	11.5473	0.1844	97.191
60.287	946.92	11.5471	0.1844	97.327
60.312	946.95	11.5467	0.1844	97.462
60.337	946.97	11.5463	0.1844	97.594
60.362	947.00	11.5459	0.1844	97.727
60.387	947.03	11.5456	0.1844	97.847
60.412	947.06	11.5453	0.1844	97.970
60.437	947.09	11.5452	0.1844	98.086
60.462		11.5451	0.1844
60.478		11.5450	0.1844