Folder: tga_data_analysis/examples/proximate_analysis

Note: README.md
# PyTGA - Thermogravimetric Analysis in Python

## Overview
PyTGA is a Python module designed for conducting and analyzing Thermogravimetric Analysis (TGA) experiments. It offers tools for loading, processing, and analyzing TGA data, focusing on proximate and oxidation analysis, solid distillation analysis, and deconvolution analysis.

## Features
- **Data Loading**: Supports loading TGA data from files.
- **Proximate Analysis**: Calculates moisture, ash, and volatile matter.
- **Oxidation Analysis**: Computes Ti, Tp, Tb, etc.
- **Solid Distillation Analysis**: Analyzes solid distillation over time.
- **Deconvolution Analysis**: Deconvolutes TGA curves for peak analysis.
- **Plotting and Visualization**: Functions for TGA data visualization.

File: MIS_2.txt
Time	Temperature	Weight	Weight	Heat Flow
min	°C	%	mg	mW
0.003		100.0565	3.7538
0.037		100.3419	3.7646
0.070	25.57	100.4472	3.7685	-22.610
0.103	25.89	100.4592	3.7690	-22.393
0.137	26.22	100.4551	3.7688	-22.190
0.170	26.53	100.4464	3.7685	-22.004
0.203	26.84	100.4334	3.7680	-21.828
0.237	27.14	100.4163	3.7673	-21.661
0.270	27.43	100.3954	3.7666	-21.503
0.303	27.72	100.3706	3.7656	-21.356
0.337	28.00	100.3422	3.7646	-21.216
0.370	28.27	100.3103	3.7634	-21.082
0.403	28.53	100.2753	3.7621	-20.954
0.437	28.79	100.2375	3.7606	-20.831
0.470	29.04	100.1974	3.7591	-20.709
0.503	29.29	100.1554	3.7576	-20.594
0.537	29.53	100.1117	3.7559	-20.487
0.570	29.77	100.0667	3.7542	-20.379
0.603	29.99	100.0207	3.7525	-20.274
0.637	30.22	99.9739	3.7507	-20.170
0.670	30.43	99.9263	3.7490	-20.070
0.703	30.65	99.8783	3.7472	-19.973
0.737	30.85	99.8300	3.7453	-19.879
0.770	31.06	99.7813	3.7435	-19.786
0.803	31.26	99.7327	3.7417	-19.694
0.837	31.46	99.6842	3.7399	-19.602
0.870	31.66	99.6360	3.7381	-19.512
0.903	31.85	99.5881	3.7363	-19.423
0.937	32.05	99.5405	3.7345	-19.337
0.970	32.25	99.4934	3.7327	-19.251
1.003	32.45	99.4467	3.7310	-19.164
1.037	32.66	99.4006	3.7292	-19.076
1.070	32.86	99.3550	3.7275	-18.988
1.103	33.07	99.3099	3.7258	-18.899
1.137	33.29	99.2653	3.7242	-18.809
1.170	33.50	99.2211	3.7225	-18.719
1.203	33.72	99.1773	3.7209	-18.632
1.237	33.95	99.1339	3.7192	-18.540
1.270	34.17	99.0908	3.7176	-18.446
1.303	34.41	99.0481	3.7160	-18.350
1.337	34.64	99.0056	3.7144	-18.256
1.370	34.88	98.9635	3.7128	-18.160
1.403	35.13	98.9217	3.7113	-18.063
1.437	35.38	98.8801	3.7097	-17.961
1.470	35.64	98.8387	3.7082	-17.858
1.503	35.90	98.7976	3.7066	-17.754
1.537	36.16	98.7566	3.7051	-17.651
1.570	36.43	98.7156	3.7035	-17.544
1.603	36.70	98.6747	3.7020	-17.435
1.637	36.98	98.6340	3.7005	-17.326
1.670	37.26	98.5937	3.6990	-17.216
1.703	37.55	98.5535	3.6975	-17.105
1.737	37.84	98.5136	3.6960	-16.993
1.770	38.14	98.4737	3.6945	-16.880
1.803	38.44	98.4339	3.6930	-16.766
1.837	38.74	98.3941	3.6915	-16.650
1.870	39.05	98.3543	3.6900	-16.535
1.903	39.36	98.3145	3.6885	-16.418
1.937	39.67	98.2748	3.6870	-16.298
1.970	39.99	98.2352	3.6855	-16.178
2.003	40.32	98.1957	3.6840	-16.056
2.037	40.64	98.1562	3.6826	-15.932
2.070	40.97	98.1165	3.6811	-15.808
2.103	41.30	98.0768	3.6796	-15.681
2.137	41.64	98.0372	3.6781	-15.554
2.170	41.97	97.9976	3.6766	-15.427
2.203	42.31	97.9579	3.6751	-15.296
2.237	42.66	97.9183	3.6736	-15.166
2.270	43.00	97.8787	3.6721	-15.034
2.303	43.35	97.8393	3.6707	-14.900
2.337	43.70	97.7997	3.6692	-14.766
2.370	44.05	97.7599	3.6677	-14.631
2.403	44.40	97.7200	3.6662	-14.493
2.437	44.76	97.6803	3.6647	-14.353
2.470	45.12	97.6404	3.6632	-14.214
2.503	45.47	97.6005	3.6617	-14.074
2.537	45.83	97.5605	3.6602	-13.933
2.570	46.19	97.5207	3.6587	-13.791
2.603	46.55	97.4810	3.6572	-13.648
2.637	46.92	97.4413	3.6557	-13.503
2.670	47.28	97.4016	3.6542	-13.358
2.703	47.64	97.3621	3.6528	-13.214
2.737	48.00	97.3226	3.6513	-13.067
2.770	48.37	97.2831	3.6498	-12.919
2.803	48.73	97.2436	3.6483	-12.772
2.837	49.10	97.2041	3.6468	-12.626
2.870	49.46	97.1645	3.6453	-12.478
2.903	49.83	97.1248	3.6439	-12.330
2.937	50.19	97.0853	3.6424	-12.179
2.970	50.56	97.0458	3.6409	-12.029
3.003	50.92	97.0063	3.6394	-11.878
3.037	51.29	96.9670	3.6379	-11.726
3.070	51.65	96.9279	3.6365	-11.576
3.103	52.02	96.8888	3.6350	-11.427
3.137	52.38	96.8498	3.6335	-11.277
3.170	52.75	96.8109	3.6321	-11.123
3.203	53.11	96.7722	3.6306	-10.971
3.237	53.47	96.7337	3.6292	-10.820
3.270	53.83	96.6955	3.6278	-10.671
3.303	54.20	96.6573	3.6263	-10.519
3.337	54.56	96.6193	3.6249	-10.369
3.370	54.92	96.5816	3.6235	-10.218
3.403	55.28	96.5440	3.6221	-10.066
3.437	55.64	96.5066	3.6207	-9.915
3.470	55.99	96.4694	3.6193	-9.766
3.503	56.35	96.4324	3.6179	-9.617
3.537	56.71	96.3957	3.6165	-9.468
3.570	57.06	96.3592	3.6151	-9.319
3.603	57.42	96.3230	3.6138	-9.171
3.637	57.78	96.2870	3.6124	-9.024
3.670	58.13	96.2513	3.6111	-8.874
3.703	58.48	96.2158	3.6098	-8.722
3.737	58.84	96.1807	3.6084	-8.575
3.770	59.19	96.1459	3.6071	-8.429
3.803	59.54	96.1114	3.6058	-8.284
3.837	59.89	96.0772	3.6046	-8.139
3.870	60.24	96.0433	3.6033	-7.995
3.903	60.59	96.0097	3.6020	-7.850
3.937	60.94	95.9765	3.6008	-7.706
3.970	61.29	95.9435	3.5995	-7.562
4.003	61.64	95.9110	3.5983	-7.419
4.037	61.99	95.8788	3.5971	-7.279
4.070	62.33	95.8470	3.5959	-7.138
4.103	62.68	95.8155	3.5947	-6.998
4.137	63.03	95.7843	3.5936	-6.857
4.170	63.37	95.7535	3.5924	-6.716
4.203	63.72	95.7232	3.5913	-6.575
4.237	64.06	95.6931	3.5901	-6.436
4.270	64.41	95.6635	3.5890	-6.299
4.303	64.75	95.6343	3.5879	-6.162
4.337	65.09	95.6054	3.5869	-6.025
4.370	65.44	95.5770	3.5858	-5.887
4.403	65.78	95.5490	3.5847	-5.751
4.437	66.12	95.5212	3.5837	-5.615
4.470	66.47	95.4935	3.5827	-5.481
4.503	66.81	95.4663	3.5816	-5.348
4.537	67.15	95.4394	3.5806	-5.214
4.570	67.49	95.4131	3.5796	-5.082
4.603	67.83	95.3873	3.5787	-4.953
4.637	68.17	95.3618	3.5777	-4.824
4.670	68.52	95.3367	3.5768	-4.694
4.703	68.86	95.3119	3.5758	-4.562
4.737	69.20	95.2875	3.5749	-4.433
4.770	69.54	95.2636	3.5740	-4.307
4.803	69.88	95.2400	3.5731	-4.179
4.837	70.22	95.2167	3.5723	-4.052
4.870	70.56	95.1937	3.5714	-3.928
4.903	70.90	95.1710	3.5706	-3.804
4.937	71.24	95.1489	3.5697	-3.680
4.970	71.58	95.1270	3.5689	-3.556
5.003	71.92	95.1053	3.5681	-3.431
5.037	72.26	95.0840	3.5673	-3.310
5.070	72.60	95.0630	3.5665	-3.191
5.103	72.94	95.0425	3.5657	-3.071
5.137	73.28	95.0224	3.5650	-2.951
5.170	73.62	95.0028	3.5642	-2.832
5.203	73.96	94.9834	3.5635	-2.712
5.237	74.30	94.9642	3.5628	-2.592
5.270	74.64	94.9454	3.5621	-2.475
5.303	74.98	94.9269	3.5614	-2.356
5.337	75.32	94.9086	3.5607	-2.238
5.370	75.66	94.8906	3.5600	-2.121
5.403	76.00	94.8731	3.5594	-2.006
5.437	76.35	94.8558	3.5587	-1.892
5.470	76.69	94.8389	3.5581	-1.778
5.503	77.03	94.8222	3.5575	-1.665
5.537	77.37	94.8057	3.5569	-1.554
5.570	77.71	94.7895	3.5562	-1.441
5.603	78.05	94.7737	3.5557	-1.326
5.637	78.40	94.7582	3.5551	-1.215
5.670	78.74	94.7431	3.5545	-1.105
5.703	79.08	94.7282	3.5539	-0.997
5.737	79.42	94.7136	3.5534	-0.888
5.770	79.77	94.6993	3.5529	-0.779
5.803	80.11	94.6852	3.5523	-0.671
5.837	80.45	94.6714	3.5518	-0.562
5.870	80.80	94.6578	3.5513	-0.454
5.903	81.14	94.6446	3.5508	-0.348
5.937	81.48	94.6316	3.5503	-0.244
5.970	81.82	94.6189	3.5498	-0.139
6.003	82.17	94.6063	3.5494	-0.034
6.037	82.51	94.5938	3.5489	0.070
6.070	82.86	94.5815	3.5484	0.174
6.103	83.20	94.5697	3.5480	0.280
6.137	83.55	94.5583	3.5476	0.383
6.170	83.89	94.5470	3.5471	0.485
6.203	84.24	94.5360	3.5467	0.588
6.237	84.58	94.5252	3.5463	0.690
6.270	84.93	94.5148	3.5459	0.790
6.303	85.27	94.5045	3.5456	0.889
6.337	85.62	94.4943	3.5452	0.988
6.370	85.96	94.4843	3.5448	1.086
6.403	86.31	94.4745	3.5444	1.185
6.437	86.65	94.4650	3.5441	1.284
6.470	87.00	94.4558	3.5437	1.382
6.503	87.35	94.4468	3.5434	1.480
6.537	87.69	94.4381	3.5431	1.576
6.570	88.04	94.4296	3.5427	1.674
6.603	88.39	94.4212	3.5424	1.772
6.637	88.73	94.4128	3.5421	1.868
6.670	89.08	94.4048	3.5418	1.962
6.703	89.42	94.3969	3.5415	2.057
6.737	89.77	94.3892	3.5412	2.151
6.770	90.12	94.3817	3.5409	2.244
6.803	90.46	94.3744	3.5407	2.335
6.837	90.81	94.3672	3.5404	2.426
6.870	91.16	94.3602	3.5401	2.519
6.903	91.50	94.3533	3.5399	2.611
6.937	91.85	94.3466	3.5396	2.703
6.970	92.19	94.3401	3.5394	2.795
7.003	92.54	94.3337	3.5391	2.886
7.037	92.89	94.3273	3.5389	2.976
7.070	93.23	94.3211	3.5387	3.065
7.103	93.58	94.3152	3.5385	3.153
7.137	93.92	94.3096	3.5382	3.241
7.170	94.27	94.3040	3.5380	3.329
7.203	94.62	94.2986	3.5378	3.416
7.237	94.96	94.2933	3.5376	3.504
7.270	95.31	94.2880	3.5374	3.588
7.303	95.65	94.2828	3.5372	3.672
7.337	96.00	94.2777	3.5370	3.756
7.370	96.34	94.2728	3.5369	3.839
7.403	96.69	94.2681	3.5367	3.923
7.437	97.04	94.2634	3.5365	4.007
7.470	97.38	94.2589	3.5363	4.091
7.503	97.73	94.2545	3.5362	4.175
7.537	98.07	94.2502	3.5360	4.258
7.570	98.42	94.2459	3.5359	4.341
7.603	98.76	94.2417	3.5357	4.424
7.637	99.11	94.2377	3.5355	4.505
7.670	99.45	94.2339	3.5354	4.587
7.703	99.80	94.2302	3.5353	4.665
7.737	100.14	94.2265	3.5351	4.746
7.770	100.49	94.2229	3.5350	4.827
7.803	100.83	94.2193	3.5349	4.905
7.837	101.18	94.2158	3.5347	4.982
7.870	101.52	94.2124	3.5346	5.060
7.903	101.86	94.2092	3.5345	5.137
7.937	102.21	94.2061	3.5344	5.214
7.970	102.55	94.2031	3.5342	5.288
8.003	102.90	94.2000	3.5341	5.364
8.037	103.24	94.1970	3.5340	5.440
8.070	103.59	94.1941	3.5339	5.514
8.103	103.93	94.1913	3.5338	5.589
8.137	104.27	94.1886	3.5337	5.661
8.170	104.62	94.1859	3.5336	5.735
8.203	104.96	94.1833	3.5335	5.808
8.237	105.31	94.1807	3.5334	5.880
8.270	105.65	94.1783	3.5333	5.948
8.303	105.99	94.1758	3.5332	6.019
8.337	106.34	94.1734	3.5331	6.091
8.353	106.51	94.1722	3.5331	6.128

[step]
Isothermal 30.0 min
Time	Temperature	Weight	Weight	Heat Flow
min	°C	%	mg	mW
8.362	106.59	94.1716	3.5331	6.146
8.470	107.71	94.1645	3.5328	6.382
8.578	108.78	94.1585	3.5326	6.647
8.687	109.79	94.1522	3.5323	6.948
8.795	110.70	94.1456	3.5321	7.287
8.903	111.51	94.1389	3.5318	7.658
9.012	112.19	94.1325	3.5316	8.040
9.120	112.74	94.1268	3.5314	8.434
9.228	113.16	94.1209	3.5312	8.817
9.337	113.45	94.1153	3.5310	9.172
9.445	113.63	94.1097	3.5307	9.484
9.553	113.72	94.1043	3.5305	9.748
9.662	113.73	94.0994	3.5304	9.966
9.770	113.66	94.0942	3.5302	10.135
9.878	113.53	94.0895	3.5300	10.266
9.987	113.37	94.0845	3.5298	10.339
10.095	113.18	94.0807	3.5297	10.370
10.203	113.00	94.0772	3.5295	10.374
10.312	112.81	94.0749	3.5294	10.352
10.420	112.64	94.0728	3.5294	10.292
10.528	112.48	94.0706	3.5293	10.219
10.637	112.34	94.0689	3.5292	10.139
10.745	112.22	94.0684	3.5292	10.060
10.853	112.13	94.0673	3.5292	9.978
10.962	112.06	94.0666	3.5291	9.902
11.070	112.01	94.0659	3.5291	9.834
11.178	111.99	94.0656	3.5291	9.773
11.287	111.99	94.0652	3.5291	9.719
11.395	112.01	94.0648	3.5291	9.663
11.503	112.05	94.0647	3.5291	9.631
11.612	112.10	94.0649	3.5291	9.605
11.720	112.17	94.0647	3.5291	9.588
11.828	112.24	94.0644	3.5290	9.575
11.937	112.32	94.0639	3.5290	9.568
12.045	112.40	94.0638	3.5290	9.567
12.153	112.49	94.0639	3.5290	9.570
12.262	112.57	94.0636	3.5290	9.582
12.370	112.65	94.0633	3.5290	9.601
12.478	112.73	94.0628	3.5290	9.625
12.587	112.80	94.0626	3.5290	9.647
12.695	112.87	94.0623	3.5290	9.674
12.803	112.93	94.0618	3.5289	9.703
12.912	112.98	94.0614	3.5289	9.731
13.020	113.02	94.0612	3.5289	9.756
13.128	113.06	94.0610	3.5289	9.778
13.237	113.09	94.0605	3.5289	9.797
13.345	113.12	94.0599	3.5289	9.817
13.453	113.14	94.0596	3.5289	9.835
13.562	113.16	94.0596	3.5289	9.851
13.670	113.17	94.0594	3.5289	9.864
13.778	113.17	94.0589	3.5288	9.875
13.887	113.18	94.0586	3.5288	9.884
13.995	113.18	94.0585	3.5288	9.888
14.103	113.18	94.0584	3.5288	9.891
14.212	113.18	94.0584	3.5288	9.893
14.320	113.18	94.0580	3.5288	9.895
14.428	113.18	94.0573	3.5288	9.897
14.537	113.18	94.0563	3.5287	9.896
14.645	113.18	94.0562	3.5287	9.894
14.753	113.18	94.0560	3.5287	9.891
14.862	113.18	94.0556	3.5287	9.887
14.970	113.18	94.0557	3.5287	9.884
15.078	113.18	94.0557	3.5287	9.880
15.187	113.18	94.0550	3.5287	9.873
15.295	113.19	94.0547	3.5287	9.869
15.403	113.19	94.0548	3.5287	9.866
15.512	113.20	94.0547	3.5287	9.864
15.620	113.21	94.0546	3.5287	9.861
15.728	113.22	94.0545	3.5287	9.859
15.837	113.22	94.0542	3.5287	9.856
15.945	113.23	94.0536	3.5286	9.854
16.053	113.24	94.0536	3.5286	9.851
16.162	113.25	94.0535	3.5286	9.850
16.270	113.26	94.0533	3.5286	9.851
16.378	113.26	94.0527	3.5286	9.851
16.487	113.27	94.0526	3.5286	9.852
16.595	113.28	94.0523	3.5286	9.853
16.703	113.29	94.0522	3.5286	9.854
16.812	113.29	94.0523	3.5286	9.853
16.920	113.30	94.0525	3.5286	9.853
17.028	113.30	94.0522	3.5286	9.854
17.137	113.31	94.0523	3.5286	9.854
17.245	113.31	94.0523	3.5286	9.853
17.353	113.31	94.0522	3.5286	9.853
17.462	113.32	94.0524	3.5286	9.853
17.570	113.32	94.0528	3.5286	9.852
17.678	113.32	94.0527	3.5286	9.850
17.787	113.32	94.0522	3.5286	9.846
17.895	113.32	94.0522	3.5286	9.844
18.003	113.32	94.0520	3.5286	9.844
18.112	113.32	94.0517	3.5286	9.842
18.220	113.32	94.0519	3.5286	9.842
18.328	113.32	94.0519	3.5286	9.842
18.437	113.32	94.0521	3.5286	9.840
18.545	113.33	94.0523	3.5286	9.838
18.653	113.33	94.0519	3.5286	9.837
18.762	113.33	94.0522	3.5286	9.834
18.870	113.33	94.0521	3.5286	9.832
18.978	113.33	94.0521	3.5286	9.829
19.087	113.33	94.0521	3.5286	9.828
19.195	113.33	94.0523	3.5286	9.825
19.303	113.33	94.0521	3.5286	9.823
19.412	113.33	94.0517	3.5286	9.821
19.520	113.33	94.0513	3.5286	9.818
19.628	113.33	94.0515	3.5286	9.819
19.737	113.33	94.0511	3.5285	9.816
19.845	113.33	94.0513	3.5285	9.813
19.953	113.33	94.0514	3.5286	9.812
20.062	113.33	94.0510	3.5285	9.809
20.170	113.33	94.0505	3.5285	9.807
20.278	113.33	94.0504	3.5285	9.806
20.387	113.33	94.0506	3.5285	9.803
20.495	113.33	94.0506	3.5285	9.800
20.603	113.33	94.0505	3.5285	9.797
20.712	113.33	94.0506	3.5285	9.795
20.820	113.34	94.0505	3.5285	9.792
20.928	113.34	94.0500	3.5285	9.791
21.037	113.34	94.0503	3.5285	9.791
21.145	113.33	94.0504	3.5285	9.786
21.253	113.34	94.0509	3.5285	9.784
21.362	113.34	94.0509	3.5285	9.782
21.470	113.33	94.0505	3.5285	9.782
21.578	113.33	94.0501	3.5285	9.779
21.687	113.33	94.0503	3.5285	9.776
21.795	113.33	94.0505	3.5285	9.773
21.903	113.33	94.0507	3.5285	9.770
22.012	113.34	94.0510	3.5285	9.767
22.120	113.33	94.0509	3.5285	9.765
22.228	113.33	94.0504	3.5285	9.762
22.337	113.33	94.0503	3.5285	9.761
22.445	113.33	94.0502	3.5285	9.757
22.553	113.33	94.0501	3.5285	9.755
22.662	113.33	94.0504	3.5285	9.754
22.770	113.33	94.0506	3.5285	9.752
22.878	113.33	94.0510	3.5285	9.752
22.987	113.33	94.0511	3.5285	9.749
23.095	113.33	94.0508	3.5285	9.747
23.203	113.33	94.0508	3.5285	9.743
23.312	113.33	94.0505	3.5285	9.741
23.420	113.33	94.0499	3.5285	9.740
23.528	113.33	94.0500	3.5285	9.737
23.637	113.33	94.0503	3.5285	9.736
23.745	113.33	94.0504	3.5285	9.734
23.853	113.33	94.0502	3.5285	9.731
23.962	113.33	94.0500	3.5285	9.728
24.070	113.33	94.0499	3.5285	9.725
24.178	113.33	94.0495	3.5285	9.723
24.287	113.33	94.0498	3.5285	9.722
24.395	113.33	94.0501	3.5285	9.720
24.503	113.33	94.0504	3.5285	9.717
24.612	113.33	94.0501	3.5285	9.716
24.720	113.32	94.0496	3.5285	9.714
24.828	113.32	94.0497	3.5285	9.711
24.937	113.32	94.0498	3.5285	9.710
25.045	113.32	94.0502	3.5285	9.710
25.153	113.32	94.0502	3.5285	9.707
25.262	113.32	94.0508	3.5285	9.704
25.370	113.32	94.0511	3.5285	9.702
25.478	113.32	94.0508	3.5285	9.699
25.587	113.32	94.0506	3.5285	9.697
25.695	113.32	94.0507	3.5285	9.695
25.803	113.32	94.0506	3.5285	9.692
25.912	113.32	94.0504	3.5285	9.689
26.020	113.32	94.0500	3.5285	9.687
26.128	113.32	94.0497	3.5285	9.686
26.237	113.32	94.0494	3.5285	9.684
26.345	113.32	94.0498	3.5285	9.683
26.453	113.32	94.0500	3.5285	9.681
26.562	113.32	94.0503	3.5285	9.677
26.670	113.32	94.0503	3.5285	9.675
26.778	113.32	94.0506	3.5285	9.670
26.887	113.32	94.0508	3.5285	9.667
26.995	113.32	94.0508	3.5285	9.663
27.103	113.32	94.0508	3.5285	9.660
27.212	113.32	94.0507	3.5285	9.660
27.320	113.31	94.0506	3.5285	9.657
27.428	113.31	94.0502	3.5285	9.654
27.537	113.31	94.0504	3.5285	9.653
27.645	113.31	94.0506	3.5285	9.652
27.753	113.31	94.0508	3.5285	9.654
27.862	113.31	94.0506	3.5285	9.652
27.970	113.31	94.0507	3.5285	9.651
28.078	113.31	94.0508	3.5285	9.649
28.187	113.31	94.0506	3.5285	9.647
28.295	113.31	94.0502	3.5285	9.645
28.403	113.31	94.0498	3.5285	9.644
28.512	113.31	94.0502	3.5285	9.642
28.620	113.31	94.0501	3.5285	9.641
28.728	113.31	94.0503	3.5285	9.641
28.837	113.31	94.0504	3.5285	9.641
28.945	113.31	94.0505	3.5285	9.638
29.053	113.31	94.0507	3.5285	9.636
29.162	113.31	94.0509	3.5285	9.634
29.270	113.31	94.0510	3.5285	9.631
29.378	113.31	94.0508	3.5285	9.629
29.487	113.31	94.0506	3.5285	9.627
29.595	113.31	94.0509	3.5285	9.625
29.703	113.31	94.0508	3.5285	9.622
29.812	113.31	94.0509	3.5285	9.617
29.920	113.31	94.0509	3.5285	9.616
30.028	113.31	94.0508	3.5285	9.613
30.137	113.31	94.0509	3.5285	9.610
30.245	113.31	94.0512	3.5285	9.606
30.353	113.31	94.0511	3.5285	9.606
30.462	113.31	94.0509	3.5285	9.606
30.570	113.30	94.0506	3.5285	9.605
30.678	113.30	94.0506	3.5285	9.603
30.787	113.30	94.0506	3.5285	9.601
30.895	113.31	94.0507	3.5285	9.601
31.003	113.30	94.0510	3.5285	9.599
31.112	113.30	94.0506	3.5285	9.599
31.220	113.30	94.0509	3.5285	9.598
31.328	113.30	94.0513	3.5285	9.594
31.437	113.30	94.0514	3.5286	9.593
31.545	113.30	94.0513	3.5285	9.591
31.653	113.30	94.0514	3.5286	9.587
31.762	113.30	94.0513	3.5285	9.583
31.870	113.30	94.0513	3.5285	9.581
31.978	113.30	94.0513	3.5285	9.581
32.087	113.30	94.0514	3.5286	9.579
32.195	113.30	94.0517	3.5286	9.578
32.303	113.30	94.0518	3.5286	9.576
32.412	113.30	94.0519	3.5286	9.574
32.520	113.30	94.0523	3.5286	9.573
32.628	113.30	94.0522	3.5286	9.571
32.737	113.30	94.0523	3.5286	9.569
32.845	113.30	94.0522	3.5286	9.567
32.953	113.30	94.0520	3.5286	9.564
33.062	113.30	94.0517	3.5286	9.563
33.170	113.30	94.0516	3.5286	9.562
33.278	113.30	94.0515	3.5286	9.558
33.387	113.30	94.0518	3.5286	9.556
33.495	113.30	94.0523	3.5286	9.554
33.603	113.30	94.0525	3.5286	9.551
33.712	113.30	94.0522	3.5286	9.550
33.820	113.29	94.0521	3.5286	9.548
33.928	113.29	94.0520	3.5286	9.548
34.037	113.30	94.0521	3.5286	9.546
34.145	113.29	94.0526	3.5286	9.545
34.253	113.30	94.0532	3.5286	9.542
34.362	113.29	94.0534	3.5286	9.541
34.470	113.29	94.0535	3.5286	9.541
34.578	113.29	94.0534	3.5286	9.538
34.687	113.29	94.0531	3.5286	9.536
34.795	113.29	94.0530	3.5286	9.537
[...]
155.978	949.44	-0.3769	-0.0141	33.336
156.095	949.46	-0.3781	-0.0142	33.715
156.212	949.48	-0.3796	-0.0142	34.056
156.328	949.49	-0.3807	-0.0143	34.371
156.445	949.51	-0.3822	-0.0143	34.638
156.562	949.52	-0.3835	-0.0144	34.936
156.678	949.54	-0.3844	-0.0144	35.198
156.795	949.55	-0.3856	-0.0145	35.452
156.912	949.56	-0.3868	-0.0145	35.667
157.028	949.58	-0.3882	-0.0146	35.879
157.145	949.59	-0.3894	-0.0146	36.087
157.262	949.60	-0.3907	-0.0147	36.289
157.378	949.61	-0.3915	-0.0147	36.472
157.495	949.62	-0.3929	-0.0147	36.604
157.612	949.63	-0.3943	-0.0148	36.747
157.728	949.64	-0.3954	-0.0148	36.914
157.845	949.64	-0.3971	-0.0149	37.085
157.962	949.65	-0.3988	-0.0150	37.248
158.078	949.66	-0.3997	-0.0150	37.400
158.195	949.67	-0.4011	-0.0150	37.528
158.312	949.67	-0.4019	-0.0151	37.673
158.428	949.68	-0.4027	-0.0151	37.765
158.545	949.68	-0.4040	-0.0152	37.859
158.662	949.69	-0.4049	-0.0152	37.951
158.778	949.70	-0.4057	-0.0152	38.071
158.895	949.70	-0.4066	-0.0153	38.193
159.012	949.71	-0.4078	-0.0153	38.301
159.128	949.71	-0.4087	-0.0153	38.425
159.245	949.71	-0.4096	-0.0154	38.521
159.362	949.72	-0.4109	-0.0154	38.601
159.478	949.72	-0.4118	-0.0154	38.685
159.595	949.73	-0.4130	-0.0155	38.769
159.712	949.73	-0.4142	-0.0155	38.857
159.828	949.74	-0.4153	-0.0156	38.947
159.945	949.74	-0.4163	-0.0156	39.028
160.062	949.74	-0.4173	-0.0157	39.113
160.178	949.75	-0.4186	-0.0157	39.191
160.295	949.75	-0.4196	-0.0157	39.271
160.412	949.75	-0.4203	-0.0158	39.351
160.528	949.76	-0.4214	-0.0158	39.442
160.645	949.76	-0.4224	-0.0158	39.514
160.762	949.76	-0.4234	-0.0159	39.583
160.878	949.77	-0.4247	-0.0159	39.655
160.995	949.77	-0.4263	-0.0160	39.732
161.112	949.77	-0.4278	-0.0160	39.815
161.228	949.77	-0.4286	-0.0161	39.877
161.345	949.78	-0.4295	-0.0161	39.935
161.462	949.78	-0.4303	-0.0161	39.998
161.578	949.78	-0.4313	-0.0162	40.064
161.695	949.78	-0.4325	-0.0162	40.126
161.812	949.78	-0.4333	-0.0163	40.171
161.928	949.79	-0.4344	-0.0163	40.232
162.045	949.79	-0.4355	-0.0163	40.292
162.162	949.79	-0.4364	-0.0164	40.371
162.278	949.79	-0.4375	-0.0164	40.450
162.395	949.79	-0.4387	-0.0165	40.499
162.512	949.80	-0.4395	-0.0165	40.552
162.628	949.80	-0.4407	-0.0165	40.604
162.745	949.80	-0.4416	-0.0166	40.659
162.862	949.80	-0.4430	-0.0166	40.716
162.978	949.80	-0.4436	-0.0166	40.775
163.095	949.81	-0.4449	-0.0167	40.824
163.212	949.81	-0.4461	-0.0167	40.879
163.328	949.81	-0.4472	-0.0168	40.933
163.445	949.81	-0.4478	-0.0168	41.008
163.562	949.81	-0.4488	-0.0168	41.091
163.678	949.81	-0.4498	-0.0169	41.154
163.795	949.81	-0.4514	-0.0169	41.206
163.912	949.82	-0.4524	-0.0170	41.264
164.028	949.82	-0.4537	-0.0170	41.312
164.145	949.82	-0.4548	-0.0171	41.353
164.262	949.82	-0.4559	-0.0171	41.384
164.378	949.82	-0.4567	-0.0171	41.418
164.495	949.82	-0.4579	-0.0172	41.491
164.612	949.83	-0.4590	-0.0172	41.566
164.728	949.83	-0.4597	-0.0172	41.624
164.845	949.83	-0.4604	-0.0173	41.671
164.962	949.83	-0.4613	-0.0173	41.714
165.078	949.83	-0.4622	-0.0173	41.758
165.195	949.83	-0.4627	-0.0174	41.800
165.312	949.83	-0.4636	-0.0174	41.837
165.428	949.83	-0.4645	-0.0174	41.891
165.545	949.84	-0.4655	-0.0175	41.957
165.662	949.84	-0.4663	-0.0175	42.008
165.778	949.84	-0.4674	-0.0175	42.053
165.895	949.84	-0.4683	-0.0176	42.119
166.012	949.84	-0.4693	-0.0176	42.166
166.128	949.84	-0.4698	-0.0176	42.213
166.245	949.84	-0.4705	-0.0177	42.270
166.362	949.84	-0.4718	-0.0177	42.315
166.478	949.84	-0.4724	-0.0177	42.362
166.595	949.85	-0.4733	-0.0178	42.410
166.712	949.85	-0.4743	-0.0178	42.460
166.828	949.85	-0.4755	-0.0178	42.501
166.945	949.85	-0.4768	-0.0179	42.550
167.062	949.85	-0.4773	-0.0179	42.593
167.178	949.85	-0.4782	-0.0179	42.645
167.295	949.85	-0.4793	-0.0180	42.704
167.412	949.85	-0.4797	-0.0180	42.737
167.528	949.85	-0.4804	-0.0180	42.779
167.645	949.86	-0.4815	-0.0181	42.834
167.762	949.86	-0.4828	-0.0181	42.879
167.878	949.86	-0.4836	-0.0181	42.922
167.995	949.86	-0.4843	-0.0182	42.973
168.112	949.86	-0.4852	-0.0182	43.021
168.228	949.86	-0.4861	-0.0182	43.065
168.345	949.86	-0.4871	-0.0183	43.124
168.462	949.86	-0.4879	-0.0183	43.163
168.578	949.87	-0.4884	-0.0183	43.197
168.695	949.87	-0.4889	-0.0183	43.241
168.812	949.87	-0.4896	-0.0184	43.283
168.928	949.87	-0.4904	-0.0184	43.329
169.045	949.87	-0.4911	-0.0184	43.368
169.162	949.87	-0.4918	-0.0185	43.405
169.278	949.87	-0.4931	-0.0185	43.443
169.395	949.87	-0.4937	-0.0185	43.482
169.512	949.87	-0.4945	-0.0186	43.525
169.628	949.87	-0.4954	-0.0186	43.558
169.745	949.88	-0.4961	-0.0186	43.610
169.862	949.88	-0.4967	-0.0186	43.645
169.978	949.88	-0.4973	-0.0187	43.688
170.095	949.88	-0.4983	-0.0187	43.724
170.212	949.88	-0.4995	-0.0187	43.768
170.328	949.88	-0.5005	-0.0188	43.807
170.445	949.88	-0.5013	-0.0188	43.850
170.562	949.88	-0.5023	-0.0188	43.894
170.678	949.88	-0.5030	-0.0189	43.956
170.795	949.88	-0.5037	-0.0189	44.009
170.912	949.88	-0.5043	-0.0189	44.043
171.028	949.88	-0.5058	-0.0190	44.091
171.145	949.89	-0.5072	-0.0190	44.139
171.262	949.89	-0.5078	-0.0190	44.199
171.378	949.89	-0.5085	-0.0191	44.235
171.495	949.89	-0.5096	-0.0191	44.279
171.612	949.89	-0.5101	-0.0191	44.318
171.728	949.89	-0.5106	-0.0192	44.357
171.845	949.89	-0.5114	-0.0192	44.400
171.962	949.89	-0.5123	-0.0192	44.425
172.078	949.89	-0.5135	-0.0193	44.476
172.195	949.89	-0.5144	-0.0193	44.525
172.312	949.90	-0.5151	-0.0193	44.578
172.428	949.90	-0.5155	-0.0193	44.621
172.545	949.90	-0.5161	-0.0194	44.660
172.662	949.90	-0.5168	-0.0194	44.701
172.778	949.90	-0.5176	-0.0194	44.744
172.895	949.90	-0.5187	-0.0195	44.784
173.012	949.90	-0.5196	-0.0195	44.830
173.128	949.90	-0.5204	-0.0195	44.887
173.245	949.90	-0.5209	-0.0195	44.936
173.362	949.90	-0.5216	-0.0196	44.982
173.478	949.90	-0.5224	-0.0196	45.023
173.595	949.91	-0.5233	-0.0196	45.046
173.712	949.91	-0.5239	-0.0197	45.075
173.828	949.91	-0.5248	-0.0197	45.125
173.945	949.91	-0.5256	-0.0197	45.182
174.062	949.91	-0.5260	-0.0197	45.240
174.178	949.91	-0.5269	-0.0198	45.294
174.295	949.91	-0.5280	-0.0198	45.337
174.412	949.91	-0.5289	-0.0198	45.377
174.528	949.91	-0.5301	-0.0199	45.414
174.645	949.91	-0.5308	-0.0199	45.447
174.762	949.92	-0.5321	-0.0200	45.488
174.878	949.92	-0.5328	-0.0200	45.527
174.995	949.92	-0.5334	-0.0200	45.571
175.112	949.92	-0.5338	-0.0200	45.597
175.228	949.92	-0.5345	-0.0201	45.629
175.345	949.92	-0.5356	-0.0201	45.668
175.462	949.92	-0.5361	-0.0201	45.708
175.578	949.92	-0.5364	-0.0201	45.745
175.695	949.92	-0.5374	-0.0202	45.780
175.812	949.92	-0.5380	-0.0202	45.810
175.928	949.92	-0.5390	-0.0202	45.835
176.045	949.93	-0.5402	-0.0203	45.862
176.162	949.93	-0.5409	-0.0203	45.902
176.278	949.93	-0.5416	-0.0203	45.933
176.395	949.93	-0.5424	-0.0203	45.956
176.512	949.93	-0.5435	-0.0204	45.984
176.628	949.93	-0.5444	-0.0204	46.016
176.745	949.93	-0.5452	-0.0205	46.052
176.862	949.93	-0.5462	-0.0205	46.095
176.978	949.93	-0.5469	-0.0205	46.135
177.095	949.93	-0.5477	-0.0205	46.178
177.212	949.93	-0.5485	-0.0206	46.221
177.328	949.93	-0.5495	-0.0206	46.275
177.445	949.93	-0.5500	-0.0206	46.320
177.562	949.93	-0.5505	-0.0207	46.360
177.678	949.94	-0.5516	-0.0207	46.395
177.795	949.94	-0.5526	-0.0207	46.430
177.912	949.94	-0.5537	-0.0208	46.464
178.028	949.94	-0.5544	-0.0208	46.493
178.145	949.94	-0.5551	-0.0208	46.526
178.262	949.94	-0.5557	-0.0208	46.560
178.378	949.94	-0.5566	-0.0209	46.591
178.495	949.94	-0.5576	-0.0209	46.625
178.612	949.94	-0.5583	-0.0209	46.669
178.728	949.94	-0.5594	-0.0210	46.702
178.845	949.94	-0.5601	-0.0210	46.727
178.962	949.94	-0.5608	-0.0210	46.747
179.078	949.95	-0.5617	-0.0211	46.765
179.195	949.95	-0.5627	-0.0211	46.796
179.312	949.95	-0.5637	-0.0211	46.823
179.428	949.95	-0.5643	-0.0212	46.848
179.545	949.95	-0.5648	-0.0212	46.888
179.662	949.95	-0.5653	-0.0212	46.924
179.778	949.95	-0.5660	-0.0212	46.954
179.895	949.95	-0.5669	-0.0213	46.984
180.012	949.95	-0.5674	-0.0213	47.013
180.128	949.95	-0.5682	-0.0213	47.047
180.245	949.95	-0.5687	-0.0213	47.070
180.362	949.95	-0.5692	-0.0214	47.108
180.478	949.95	-0.5700	-0.0214	47.134
180.595	949.95	-0.5707	-0.0214	47.163
180.712	949.95	-0.5711	-0.0214	47.189
180.828	949.96	-0.5717	-0.0214	47.216
180.945	949.96	-0.5730	-0.0215	47.250
181.062	949.96	-0.5739	-0.0215	47.276
181.178	949.96	-0.5742	-0.0215	47.290
181.295	949.96	-0.5747	-0.0216	47.313
181.412	949.96	-0.5752	-0.0216	47.342
181.528	949.96	-0.5761	-0.0216	47.375
181.645	949.96	-0.5767	-0.0216	47.410
181.762	949.96	-0.5772	-0.0217	47.439
181.878	949.96	-0.5779	-0.0217	47.456
181.995	949.96	-0.5787	-0.0217	47.478
182.112	949.96	-0.5795	-0.0217	47.500
182.228	949.96	-0.5801	-0.0218	47.521
182.345		-0.5804	-0.0218
182.353		-0.5804	-0.0218