Folder: tga_data_analysis/examples/soliddistillation

Note: README.md
# PyTGA - Thermogravimetric Analysis in Python

## Overview
PyTGA is a Python module designed for conducting and analyzing Thermogravimetric Analysis (TGA) experiments. It offers tools for loading, processing, and analyzing TGA data, focusing on proximate and oxidation analysis, solid distillation analysis, and deconvolution analysis.

## Features
- **Data Loading**: Supports loading TGA data from files.
- **Proximate Analysis**: Calculates moisture, ash, and volatile matter.
- **Oxidation Analysis**: Computes Ti, Tp, Tb, etc.
- **Solid Distillation Analysis**: Analyzes solid distillation over time.
- **Deconvolution Analysis**: Deconvolutes TGA curves for peak analysis.
- **Plotting and Visualization**: Functions for TGA data visualization.

File: SDb_1.txt
Time	Temperature	Weight	Weight	Heat Flow
min	Â°C	%	mg	mW
0.003		100.0321	3.4057
0.037		100.1565	3.4100
0.070	25.63	100.2226	3.4122	-22.347
0.103	25.97	100.2396	3.4128	-22.067
0.137	26.30	100.2339	3.4126	-21.793
0.170	26.63	100.2213	3.4122	-21.527
0.203	26.95	100.2029	3.4115	-21.272
0.237	27.26	100.1790	3.4107	-21.026
0.270	27.57	100.1504	3.4097	-20.791
0.303	27.86	100.1171	3.4086	-20.565
0.337	28.15	100.0796	3.4073	-20.352
0.370	28.44	100.0380	3.4059	-20.151
0.403	28.71	99.9930	3.4044	-19.958
0.437	28.98	99.9448	3.4027	-19.772
0.470	29.24	99.8941	3.4010	-19.595
0.503	29.49	99.8411	3.3992	-19.428
0.537	29.74	99.7863	3.3974	-19.272
0.570	29.98	99.7301	3.3954	-19.122
0.603	30.21	99.6727	3.3935	-18.978
0.637	30.44	99.6144	3.3915	-18.843
0.670	30.66	99.5555	3.3895	-18.715
0.703	30.88	99.4964	3.3875	-18.588
0.737	31.09	99.4370	3.3855	-18.465
0.770	31.29	99.3775	3.3834	-18.348
0.803	31.50	99.3184	3.3814	-18.238
0.837	31.70	99.2599	3.3794	-18.130
0.870	31.90	99.2020	3.3775	-18.027
0.903	32.10	99.1446	3.3755	-17.927
0.937	32.29	99.0882	3.3736	-17.829
0.970	32.49	99.0327	3.3717	-17.734
1.003	32.69	98.9781	3.3698	-17.639
1.037	32.90	98.9247	3.3680	-17.545
1.070	33.10	98.8724	3.3662	-17.452
1.103	33.31	98.8213	3.3645	-17.360
1.137	33.53	98.7711	3.3628	-17.264
1.170	33.74	98.7219	3.3611	-17.168
1.203	33.96	98.6735	3.3595	-17.074
1.237	34.18	98.6258	3.3578	-16.978
1.270	34.41	98.5790	3.3562	-16.879
1.303	34.65	98.5331	3.3547	-16.778
1.337	34.88	98.4879	3.3531	-16.677
1.370	35.12	98.4434	3.3516	-16.574
1.403	35.37	98.3995	3.3501	-16.468
1.437	35.62	98.3563	3.3487	-16.358
1.470	35.88	98.3138	3.3472	-16.245
1.503	36.14	98.2718	3.3458	-16.129
1.537	36.41	98.2303	3.3444	-16.010
1.570	36.68	98.1895	3.3430	-15.888
1.603	36.96	98.1493	3.3416	-15.766
1.637	37.24	98.1097	3.3403	-15.641
1.670	37.52	98.0705	3.3389	-15.514
1.703	37.81	98.0316	3.3376	-15.384
1.737	38.11	97.9931	3.3363	-15.250
1.770	38.41	97.9551	3.3350	-15.114
1.803	38.71	97.9176	3.3337	-14.975
1.837	39.02	97.8806	3.3325	-14.835
1.870	39.33	97.8440	3.3312	-14.692
1.903	39.65	97.8079	3.3300	-14.546
1.937	39.97	97.7720	3.3288	-14.397
1.970	40.29	97.7366	3.3276	-14.247
2.003	40.62	97.7017	3.3264	-14.097
2.037	40.95	97.6671	3.3252	-13.945
2.070	41.28	97.6328	3.3240	-13.788
2.103	41.62	97.5988	3.3229	-13.629
2.137	41.96	97.5652	3.3217	-13.468
2.170	42.30	97.5320	3.3206	-13.309
2.203	42.65	97.4990	3.3195	-13.147
2.237	43.00	97.4663	3.3184	-12.981
2.270	43.35	97.4338	3.3173	-12.814
2.303	43.70	97.4019	3.3162	-12.648
2.337	44.05	97.3705	3.3151	-12.479
2.370	44.41	97.3393	3.3140	-12.310
2.403	44.77	97.3084	3.3130	-12.140
2.437	45.13	97.2777	3.3119	-11.970
2.470	45.49	97.2472	3.3109	-11.799
2.503	45.85	97.2171	3.3099	-11.627
2.537	46.22	97.1872	3.3089	-11.455
2.570	46.58	97.1576	3.3079	-11.280
2.603	46.95	97.1285	3.3069	-11.107
2.637	47.31	97.0998	3.3059	-10.933
2.670	47.68	97.0715	3.3049	-10.761
2.703	48.05	97.0434	3.3040	-10.588
2.737	48.41	97.0155	3.3030	-10.415
2.770	48.78	96.9879	3.3021	-10.242
2.803	49.15	96.9607	3.3011	-10.070
2.837	49.52	96.9339	3.3002	-9.896
2.870	49.89	96.9074	3.2993	-9.721
2.903	50.26	96.8812	3.2984	-9.548
2.937	50.63	96.8555	3.2976	-9.374
2.970	51.00	96.8302	3.2967	-9.202
3.003	51.37	96.8052	3.2959	-9.032
3.037	51.73	96.7806	3.2950	-8.861
3.070	52.10	96.7561	3.2942	-8.690
3.103	52.47	96.7320	3.2934	-8.520
3.137	52.83	96.7084	3.2926	-8.352
3.170	53.20	96.6852	3.2918	-8.185
3.203	53.57	96.6623	3.2910	-8.021
3.237	53.93	96.6396	3.2902	-7.857
3.270	54.29	96.6173	3.2895	-7.692
3.303	54.66	96.5954	3.2887	-7.526
3.337	55.02	96.5739	3.2880	-7.362
3.370	55.38	96.5529	3.2873	-7.200
3.403	55.74	96.5324	3.2866	-7.042
3.437	56.10	96.5123	3.2859	-6.883
3.470	56.46	96.4924	3.2852	-6.724
3.503	56.82	96.4728	3.2845	-6.568
3.537	57.18	96.4537	3.2839	-6.412
3.570	57.54	96.4350	3.2833	-6.257
3.603	57.89	96.4167	3.2826	-6.105
3.637	58.25	96.3986	3.2820	-5.953
3.670	58.60	96.3808	3.2814	-5.802
3.703	58.96	96.3635	3.2808	-5.652
3.737	59.31	96.3466	3.2802	-5.502
3.770	59.66	96.3302	3.2797	-5.355
3.803	60.01	96.3142	3.2791	-5.211
3.837	60.36	96.2987	3.2786	-5.067
3.870	60.71	96.2835	3.2781	-4.924
3.903	61.06	96.2686	3.2776	-4.784
3.937	61.41	96.2541	3.2771	-4.644
3.970	61.76	96.2398	3.2766	-4.505
4.003	62.11	96.2259	3.2761	-4.367
4.037	62.45	96.2123	3.2757	-4.232
4.070	62.80	96.1992	3.2752	-4.099
4.103	63.14	96.1864	3.2748	-3.966
4.137	63.49	96.1740	3.2744	-3.832
4.170	63.83	96.1620	3.2740	-3.701
4.203	64.17	96.1503	3.2736	-3.572
4.237	64.52	96.1388	3.2732	-3.441
4.270	64.86	96.1275	3.2728	-3.312
4.303	65.20	96.1165	3.2724	-3.185
4.337	65.54	96.1058	3.2720	-3.060
4.370	65.88	96.0954	3.2717	-2.936
4.403	66.22	96.0853	3.2713	-2.813
4.437	66.56	96.0754	3.2710	-2.690
4.470	66.90	96.0657	3.2707	-2.566
4.503	67.24	96.0563	3.2704	-2.448
4.537	67.58	96.0472	3.2700	-2.330
4.570	67.92	96.0385	3.2698	-2.212
4.603	68.26	96.0301	3.2695	-2.095
4.637	68.60	96.0219	3.2692	-1.980
4.670	68.94	96.0139	3.2689	-1.864
4.703	69.27	96.0060	3.2686	-1.748
4.737	69.61	95.9983	3.2684	-1.634
4.770	69.95	95.9909	3.2681	-1.521
4.803	70.29	95.9838	3.2679	-1.411
4.837	70.62	95.9768	3.2677	-1.300
4.870	70.96	95.9700	3.2674	-1.190
4.903	71.30	95.9635	3.2672	-1.082
4.937	71.64	95.9572	3.2670	-0.975
4.970	71.97	95.9512	3.2668	-0.868
5.003	72.31	95.9453	3.2666	-0.763
5.037	72.65	95.9394	3.2664	-0.658
5.070	72.99	95.9338	3.2662	-0.551
5.103	73.32	95.9282	3.2660	-0.445
5.137	73.66	95.9228	3.2658	-0.340
5.170	74.00	95.9175	3.2656	-0.238
5.203	74.34	95.9123	3.2655	-0.138
5.237	74.67	95.9074	3.2653	-0.036
5.270	75.01	95.9027	3.2651	0.066
5.303	75.35	95.8982	3.2650	0.166
5.337	75.69	95.8937	3.2648	0.266
5.370	76.03	95.8894	3.2647	0.363
5.403	76.37	95.8853	3.2645	0.458
5.437	76.70	95.8812	3.2644	0.555
5.470	77.04	95.8772	3.2643	0.651
5.503	77.38	95.8732	3.2641	0.747
5.537	77.72	95.8694	3.2640	0.841
5.570	78.06	95.8656	3.2639	0.935
5.603	78.40	95.8620	3.2637	1.030
5.637	78.74	95.8585	3.2636	1.124
5.670	79.08	95.8551	3.2635	1.217
5.703	79.42	95.8518	3.2634	1.308
5.737	79.76	95.8487	3.2633	1.399
5.770	80.10	95.8456	3.2632	1.490
5.803	80.44	95.8426	3.2631	1.580
5.837	80.78	95.8396	3.2630	1.669
5.870	81.12	95.8368	3.2629	1.758
5.903	81.46	95.8339	3.2628	1.846
5.937	81.80	95.8312	3.2627	1.935
5.970	82.14	95.8287	3.2626	2.023
6.003	82.48	95.8262	3.2625	2.110
6.037	82.82	95.8239	3.2624	2.196
6.070	83.16	95.8218	3.2624	2.283
6.103	83.50	95.8197	3.2623	2.369
6.137	83.85	95.8176	3.2622	2.454
6.170	84.19	95.8156	3.2622	2.538
6.203	84.53	95.8137	3.2621	2.622
6.237	84.87	95.8119	3.2620	2.704
6.270	85.21	95.8100	3.2620	2.786
6.303	85.56	95.8080	3.2619	2.868
6.337	85.90	95.8062	3.2618	2.951
6.370	86.24	95.8045	3.2618	3.031
6.403	86.59	95.8029	3.2617	3.112
6.437	86.93	95.8011	3.2617	3.193
6.470	87.27	95.7993	3.2616	3.276
6.503	87.62	95.7977	3.2616	3.357
6.537	87.96	95.7961	3.2615	3.436
6.570	88.30	95.7945	3.2614	3.515
6.603	88.65	95.7931	3.2614	3.595
6.637	88.99	95.7918	3.2614	3.674
6.670	89.33	95.7905	3.2613	3.750
6.703	89.68	95.7892	3.2613	3.825
6.737	90.02	95.7879	3.2612	3.901
6.770	90.36	95.7866	3.2612	3.979
6.803	90.71	95.7855	3.2611	4.055
6.837	91.05	95.7844	3.2611	4.129
6.870	91.39	95.7833	3.2611	4.202
6.903	91.74	95.7822	3.2610	4.277
6.937	92.08	95.7812	3.2610	4.351
6.970	92.43	95.7803	3.2610	4.424
7.003	92.77	95.7794	3.2609	4.498
7.037	93.11	95.7784	3.2609	4.572
7.070	93.46	95.7774	3.2609	4.646
7.103	93.80	95.7765	3.2608	4.718
7.137	94.14	95.7756	3.2608	4.789
7.170	94.49	95.7746	3.2608	4.860
7.203	94.83	95.7736	3.2607	4.931
7.237	95.18	95.7727	3.2607	5.002
7.270	95.52	95.7718	3.2607	5.070
7.303	95.86	95.7710	3.2606	5.140
7.337	96.21	95.7701	3.2606	5.210
7.370	96.55	95.7691	3.2606	5.278
7.403	96.89	95.7683	3.2606	5.347
7.437	97.24	95.7676	3.2605	5.416
7.470	97.58	95.7669	3.2605	5.483
7.503	97.92	95.7662	3.2605	5.550
7.537	98.27	95.7656	3.2605	5.617
7.570	98.61	95.7650	3.2604	5.685
7.603	98.95	95.7643	3.2604	5.749
7.637	99.30	95.7637	3.2604	5.815
7.670	99.64	95.7631	3.2604	5.883
7.703	99.98	95.7624	3.2604	5.949
7.737	100.33	95.7617	3.2603	6.013
7.770	100.67	95.7609	3.2603	6.076
7.803	101.01	95.7602	3.2603	6.138
7.837	101.35	95.7596	3.2603	6.199
7.870	101.70	95.7591	3.2602	6.263
7.903	102.04	95.7586	3.2602	6.324
7.937	102.38	95.7581	3.2602	6.386
7.970	102.72	95.7575	3.2602	6.448
8.003	103.07	95.7568	3.2602	6.510
8.037	103.41	95.7563	3.2601	6.569
8.070	103.75	95.7558	3.2601	6.628
8.103	104.09	95.7553	3.2601	6.686
8.137	104.43	95.7548	3.2601	6.748
8.170	104.78	95.7541	3.2601	6.809
8.203	105.12	95.7534	3.2600	6.869
8.237	105.46	95.7526	3.2600	6.927
8.270	105.80	95.7519	3.2600	6.984
8.303	106.14	95.7514	3.2600	7.040
8.337	106.48	95.7509	3.2600	7.097
8.353	106.66	95.7507	3.2600	7.127

[step]
Isothermal 30.0 min
Time	Temperature	Weight	Weight	Heat Flow
min	Â°C	%	mg	mW
8.362	106.74	95.7506	3.2600	7.142
8.470	107.85	95.7492	3.2599	7.331
8.578	108.92	95.7470	3.2598	7.546
8.687	109.92	95.7438	3.2597	7.791
8.795	110.81	95.7393	3.2596	8.049
8.903	111.60	95.7344	3.2594	8.297
9.012	112.26	95.7288	3.2592	8.517
9.120	112.78	95.7231	3.2590	8.714
9.228	113.17	95.7168	3.2588	8.866
9.337	113.42	95.7094	3.2585	8.956
9.445	113.57	95.7017	3.2583	8.995
9.553	113.62	95.6940	3.2580	8.987
9.662	113.59	95.6862	3.2578	8.925
9.770	113.48	95.6787	3.2575	8.814
9.878	113.32	95.6721	3.2573	8.676
9.987	113.12	95.6656	3.2571	8.514
10.095	112.91	95.6605	3.2569	8.322
10.203	112.70	95.6559	3.2567	8.128
10.312	112.49	95.6524	3.2566	7.939
10.420	112.30	95.6492	3.2565	7.757
10.528	112.12	95.6471	3.2564	7.587
10.637	111.97	95.6449	3.2564	7.443
10.745	111.85	95.6433	3.2563	7.311
10.853	111.75	95.6418	3.2562	7.191
10.962	111.68	95.6404	3.2562	7.095
11.070	111.63	95.6391	3.2562	7.023
11.178	111.62	95.6381	3.2561	6.970
11.287	111.62	95.6370	3.2561	6.931
11.395	111.64	95.6359	3.2560	6.900
11.503	111.69	95.6350	3.2560	6.884
11.612	111.74	95.6342	3.2560	6.877
11.720	111.81	95.6333	3.2560	6.877
11.828	111.89	95.6325	3.2559	6.884
11.937	111.97	95.6315	3.2559	6.900
12.045	112.06	95.6304	3.2559	6.925
12.153	112.15	95.6294	3.2558	6.954
12.262	112.23	95.6282	3.2558	6.983
12.370	112.32	95.6272	3.2557	7.021
12.478	112.40	95.6262	3.2557	7.045
12.587	112.47	95.6248	3.2557	7.070
12.695	112.54	95.6230	3.2556	7.099
12.803	112.59	95.6212	3.2555	7.119
12.912	112.64	95.6197	3.2555	7.137
13.020	112.69	95.6182	3.2554	7.155
13.128	112.73	95.6173	3.2554	7.168
13.237	112.76	95.6159	3.2554	7.181
13.345	112.78	95.6138	3.2553	7.187
13.453	112.80	95.6116	3.2552	7.192
13.562	112.81	95.6098	3.2552	7.196
13.670	112.82	95.6080	3.2551	7.195
13.778	112.82	95.6069	3.2551	7.195
13.887	112.83	95.6053	3.2550	7.194
13.995	112.83	95.6038	3.2550	7.191
14.103	112.82	95.6026	3.2549	7.181
14.212	112.82	95.6008	3.2549	7.171
14.320	112.82	95.5994	3.2548	7.159
14.428	112.82	95.5986	3.2548	7.153
14.537	112.81	95.5977	3.2547	7.146
14.645	112.81	95.5972	3.2547	7.135
14.753	112.81	95.5963	3.2547	7.127
14.862	112.81	95.5949	3.2546	7.121
14.970	112.81	95.5940	3.2546	7.112
15.078	112.82	95.5928	3.2546	7.105
15.187	112.82	95.5919	3.2545	7.101
15.295	112.83	95.5912	3.2545	7.099
15.403	112.83	95.5899	3.2545	7.095
15.512	112.84	95.5890	3.2544	7.091
15.620	112.85	95.5883	3.2544	7.087
15.728	112.85	95.5876	3.2544	7.084
15.837	112.86	95.5863	3.2544	7.083
15.945	112.87	95.5851	3.2543	7.082
16.053	112.88	95.5838	3.2543	7.084
16.162	112.89	95.5827	3.2542	7.084
16.270	112.90	95.5814	3.2542	7.085
16.378	112.90	95.5802	3.2541	7.087
16.487	112.91	95.5794	3.2541	7.088
16.595	112.92	95.5852	3.2543	7.085
16.703	112.92	95.5822	3.2542	7.087
16.812	112.93	95.5786	3.2541	7.086
16.920	112.94	95.5761	3.2540	7.087
17.028	112.94	95.5736	3.2539	7.089
17.137	112.95	95.5718	3.2539	7.086
17.245	112.95	95.5705	3.2538	7.086
17.353	112.95	95.5695	3.2538	7.083
17.462	112.95	95.5682	3.2537	7.083
17.570	112.96	95.5669	3.2537	7.080
17.678	112.96	95.5661	3.2537	7.078
17.787	112.96	95.5652	3.2536	7.075
17.895	112.96	95.5644	3.2536	7.075
18.003	112.96	95.5632	3.2536	7.075
18.112	112.96	95.5621	3.2535	7.072
18.220	112.96	95.5615	3.2535	7.069
18.328	112.96	95.5609	3.2535	7.066
18.437	112.96	95.5604	3.2535	7.063
18.545	112.96	95.5595	3.2534	7.060
18.653	112.97	95.5582	3.2534	7.059
18.762	112.97	95.5574	3.2534	7.057
18.870	112.97	95.5568	3.2533	7.054
18.978	112.97	95.5555	3.2533	7.050
19.087	112.97	95.5546	3.2533	7.048
19.195	112.97	95.5536	3.2532	7.047
19.303	112.97	95.5527	3.2532	7.043
19.412	112.97	95.5520	3.2532	7.040
19.520	112.97	95.5514	3.2532	7.038
19.628	112.97	95.5505	3.2531	7.036
19.737	112.97	95.5497	3.2531	7.034
19.845	112.97	95.5490	3.2531	7.033
19.953	112.97	95.5479	3.2530	7.031
20.062	112.97	95.5469	3.2530	7.028
20.170	112.97	95.5460	3.2530	7.025
20.278	112.97	95.5451	3.2530	7.023
20.387	112.97	95.5447	3.2529	7.019
20.495	112.97	95.5443	3.2529	7.016
20.603	112.97	95.5434	3.2529	7.014
20.712	112.97	95.5426	3.2529	7.011
20.820	112.97	95.5418	3.2528	7.009
20.928	112.97	95.5411	3.2528	7.007
21.037	112.97	95.5401	3.2528	7.003
21.145	112.97	95.5394	3.2528	7.001
21.253	112.97	95.5387	3.2527	6.998
21.362	112.97	95.5383	3.2527	6.997
21.470	112.97	95.5375	3.2527	6.995
21.578	112.97	95.5368	3.2527	6.993
21.687	112.97	95.5363	3.2527	6.992
21.795	112.97	95.5353	3.2526	6.990
21.903	112.97	95.5344	3.2526	6.989
22.012	112.97	95.5333	3.2526	6.988
22.120	112.97	95.5322	3.2525	6.987
22.228	112.97	95.5315	3.2525	6.984
22.337	112.97	95.5312	3.2525	6.980
22.445	112.97	95.5305	3.2525	6.976
22.553	112.97	95.5300	3.2524	6.975
22.662	112.97	95.5291	3.2524	6.973
22.770	112.97	95.5281	3.2524	6.972
22.878	112.97	95.5273	3.2523	6.970
22.987	112.97	95.5263	3.2523	6.968
23.095	112.97	95.5259	3.2523	6.968
23.203	112.97	95.5251	3.2523	6.967
23.312	112.97	95.5244	3.2522	6.966
23.420	112.97	95.5235	3.2522	6.968
23.528	112.97	95.5232	3.2522	6.967
23.637	112.97	95.5221	3.2522	6.966
23.745	112.97	95.5218	3.2522	6.964
23.853	112.97	95.5209	3.2521	6.961
23.962	112.97	95.5199	3.2521	6.959
24.070	112.97	95.5187	3.2521	6.958
24.178	112.97	95.5180	3.2520	6.957
24.287	112.97	95.5171	3.2520	6.955
24.395	112.97	95.5163	3.2520	6.954
24.503	112.97	95.5158	3.2520	6.953
24.612	112.97	95.5152	3.2519	6.953
24.720	112.97	95.5149	3.2519	6.953
24.828	112.97	95.5146	3.2519	6.948
24.937	112.97	95.5137	3.2519	6.948
25.045	112.97	95.5128	3.2519	6.947
25.153	112.97	95.5119	3.2518	6.944
25.262	112.97	95.5111	3.2518	6.944
25.370	112.96	95.5106	3.2518	6.943
25.478	112.96	95.5102	3.2518	6.941
25.587	112.96	95.5096	3.2517	6.941
25.695	112.96	95.5091	3.2517	6.939
25.803	112.96	95.5082	3.2517	6.939
25.912	112.96	95.5074	3.2517	6.935
26.020	112.96	95.5066	3.2516	6.936
26.128	112.96	95.5058	3.2516	6.935
26.237	112.96	95.5054	3.2516	6.935
26.345	112.96	95.5048	3.2516	6.933
26.453	112.96	95.5041	3.2516	6.930
26.562	112.96	95.5034	3.2515	6.929
26.670	112.96	95.5031	3.2515	6.927
26.778	112.96	95.5025	3.2515	6.922
26.887	112.96	95.5020	3.2515	6.920
26.995	112.96	95.5014	3.2515	6.918
27.103	112.96	95.5007	3.2514	6.916
27.212	112.96	95.5000	3.2514	6.914
27.320	112.96	95.4993	3.2514	6.912
27.428	112.96	95.4986	3.2514	6.912
27.537	112.96	95.4979	3.2513	6.908
27.645	112.96	95.4972	3.2513	6.907
27.753	112.96	95.4966	3.2513	6.906
27.862	112.96	95.4961	3.2513	6.903
27.970	112.96	95.4954	3.2513	6.901
28.078	112.96	95.4951	3.2512	6.900
28.187	112.96	95.4945	3.2512	6.898
28.295	112.95	95.4938	3.2512	6.899
28.403	112.95	95.4929	3.2512	6.896
28.512	112.95	95.4919	3.2511	6.892
28.620	112.95	95.4909	3.2511	6.890
28.728	112.95	95.4899	3.2511	6.888
28.837	112.95	95.4896	3.2511	6.886
28.945	112.95	95.4889	3.2510	6.885
29.053	112.95	95.4881	3.2510	6.881
29.162	112.95	95.4872	3.2510	6.878
29.270	112.95	95.4863	3.2510	6.875
29.378	112.95	95.4860	3.2509	6.874
29.487	112.95	95.4858	3.2509	6.873
29.595	112.95	95.4850	3.2509	6.871
29.703	112.95	95.4846	3.2509	6.871
29.812	112.95	95.4839	3.2509	6.873
29.920	112.95	95.4833	3.2508	6.871
30.028	112.95	95.4824	3.2508	6.871
30.137	112.95	95.4817	3.2508	6.869
30.245	112.95	95.4813	3.2508	6.868
30.353	112.95	95.4811	3.2508	6.866
30.462	112.95	95.4807	3.2508	6.863
30.570	112.95	95.4801	3.2507	6.861
30.678	112.95	95.4794	3.2507	6.860
30.787	112.95	95.4786	3.2507	6.857
30.895	112.95	95.4781	3.2507	6.854
31.003	112.95	95.4780	3.2507	6.851
31.112	112.95	95.4772	3.2506	6.849
31.220	112.95	95.4762	3.2506	6.849
31.328	112.95	95.4755	3.2506	6.847
31.437	112.95	95.4749	3.2506	6.846
31.545	112.95	95.4746	3.2506	6.845
31.653	112.95	95.4739	3.2505	6.842
31.762	112.95	95.4734	3.2505	6.842
31.870	112.94	95.4728	3.2505	6.840
31.978	112.94	95.4723	3.2505	6.838
32.087	112.94	95.4720	3.2505	6.835
32.195	112.94	95.4715	3.2504	6.835
32.303	112.94	95.4707	3.2504	6.835
32.412	112.94	95.4700	3.2504	6.833
32.520	112.94	95.4690	3.2504	6.832
32.628	112.94	95.4681	3.2503	6.832
32.737	112.94	95.4676	3.2503	6.829
32.845	112.94	95.4671	3.2503	6.828
32.953	112.94	95.4667	3.2503	6.827
33.062	112.94	95.4661	3.2503	6.826
33.170	112.94	95.4657	3.2503	6.823
33.278	112.94	95.4652	3.2502	6.820
33.387	112.94	95.4645	3.2502	6.816
33.495	112.94	95.4637	3.2502	6.815
33.603	112.94	95.4626	3.2501	6.815
33.712	112.94	95.4621	3.2501	6.815
33.820	112.94	95.4612	3.2501	6.812
33.928	112.94	95.4606	3.2501	6.810
34.037	112.94	95.4604	3.2501	6.806
34.145	112.94	95.4600	3.2501	6.804
34.253	112.94	95.4594	3.2500	6.803
34.362	112.94	95.4586	3.2500	6.801
34.470	112.94	95.4585	3.2500	6.800
34.578	112.94	95.4580	3.2500	6.799
34.687	112.94	95.4571	3.2500	6.798
34.795	112.94	95.4566	3.2499	6.796
34.903	112.94	95.4562	3.2499	6.794
[...]
203.878	947.67	-0.5096	-0.0173	9.883
203.995	947.77	-0.5106	-0.0174	10.983
204.112	947.86	-0.5113	-0.0174	11.976
204.228	947.95	-0.5112	-0.0174	12.894
204.345	948.03	-0.5118	-0.0174	13.726
204.462	948.11	-0.5127	-0.0175	14.493
204.578	948.18	-0.5136	-0.0175	15.213
204.695	948.25	-0.5142	-0.0175	15.872
204.812	948.31	-0.5151	-0.0175	16.474
204.928	948.37	-0.5162	-0.0176	17.013
205.045	948.43	-0.5171	-0.0176	17.518
205.162	948.48	-0.5181	-0.0176	17.989
205.278	948.53	-0.5192	-0.0177	18.433
205.395	948.58	-0.5205	-0.0177	18.805
205.512	948.62	-0.5218	-0.0178	19.143
205.628	948.66	-0.5228	-0.0178	19.459
205.745	948.70	-0.5239	-0.0178	19.736
205.862	948.74	-0.5251	-0.0179	20.005
205.978	948.78	-0.5265	-0.0179	20.267
206.095	948.81	-0.5276	-0.0180	20.455
206.212	948.84	-0.5285	-0.0180	20.661
206.328	948.87	-0.5296	-0.0180	20.827
206.445	948.90	-0.5306	-0.0181	20.991
206.562	948.93	-0.5314	-0.0181	21.158
206.678	948.95	-0.5324	-0.0181	21.274
206.795	948.98	-0.5336	-0.0182	21.381
206.912	949.00	-0.5348	-0.0182	21.511
207.028	949.02	-0.5357	-0.0182	21.579
207.145	949.04	-0.5368	-0.0183	21.637
207.262	949.06	-0.5378	-0.0183	21.713
207.378	949.08	-0.5387	-0.0183	21.794
207.495	949.10	-0.5396	-0.0184	21.849
207.612	949.11	-0.5403	-0.0184	21.909
207.728	949.13	-0.5416	-0.0184	21.948
207.845	949.14	-0.5426	-0.0185	21.982
207.962	949.15	-0.5443	-0.0185	22.015
208.078	949.17	-0.5453	-0.0186	22.055
208.195	949.18	-0.5461	-0.0186	22.090
208.312	949.19	-0.5472	-0.0186	22.107
208.428	949.20	-0.5480	-0.0187	22.121
208.545	949.21	-0.5492	-0.0187	22.147
208.662	949.22	-0.5504	-0.0187	22.168
208.778	949.23	-0.5516	-0.0188	22.176
208.895	949.24	-0.5528	-0.0188	22.181
209.012	949.25	-0.5539	-0.0189	22.177
209.128	949.26	-0.5550	-0.0189	22.181
209.245	949.26	-0.5558	-0.0189	22.177
209.362	949.27	-0.5563	-0.0189	22.169
209.478	949.28	-0.5572	-0.0190	22.154
209.595	949.28	-0.5585	-0.0190	22.142
209.712	949.29	-0.5598	-0.0191	22.137
209.828	949.30	-0.5612	-0.0191	22.120
209.945	949.30	-0.5626	-0.0192	22.100
210.062	949.31	-0.5640	-0.0192	22.085
210.178	949.31	-0.5650	-0.0192	22.071
210.295	949.31	-0.5662	-0.0193	22.061
210.412	949.32	-0.5670	-0.0193	22.054
210.528	949.32	-0.5681	-0.0193	22.035
210.645	949.33	-0.5690	-0.0194	22.014
210.762	949.33	-0.5698	-0.0194	21.996
210.878	949.33	-0.5709	-0.0194	21.982
210.995	949.34	-0.5716	-0.0195	21.960
211.112	949.34	-0.5728	-0.0195	21.936
211.228	949.34	-0.5740	-0.0195	21.904
211.345	949.34	-0.5747	-0.0196	21.897
211.462	949.34	-0.5756	-0.0196	21.884
211.578	949.35	-0.5765	-0.0196	21.862
211.695	949.35	-0.5773	-0.0197	21.849
211.812	949.35	-0.5783	-0.0197	21.837
211.928	949.35	-0.5797	-0.0197	21.818
212.045	949.35	-0.5809	-0.0198	21.799
212.162	949.36	-0.5819	-0.0198	21.787
212.278	949.36	-0.5831	-0.0199	21.771
212.395	949.36	-0.5835	-0.0199	21.754
212.512	949.36	-0.5842	-0.0199	21.733
212.628	949.36	-0.5851	-0.0199	21.727
212.745	949.36	-0.5865	-0.0200	21.722
212.862	949.36	-0.5878	-0.0200	21.712
212.978	949.36	-0.5890	-0.0201	21.697
213.095	949.37	-0.5900	-0.0201	21.680
213.212	949.37	-0.5913	-0.0201	21.661
213.328	949.37	-0.5923	-0.0202	21.644
213.445	949.37	-0.5935	-0.0202	21.632
213.562	949.37	-0.5949	-0.0203	21.622
213.678	949.37	-0.5955	-0.0203	21.607
213.795	949.37	-0.5966	-0.0203	21.596
213.912	949.37	-0.5975	-0.0203	21.588
214.028	949.37	-0.5984	-0.0204	21.575
214.145	949.37	-0.5994	-0.0204	21.571
214.262	949.37	-0.6009	-0.0205	21.565
214.378	949.37	-0.6026	-0.0205	21.561
214.495	949.37	-0.6038	-0.0206	21.545
214.612	949.37	-0.6046	-0.0206	21.544
214.728	949.37	-0.6059	-0.0206	21.531
214.845	949.37	-0.6069	-0.0207	21.518
214.962	949.37	-0.6079	-0.0207	21.515
215.078	949.37	-0.6086	-0.0207	21.510
215.195	949.37	-0.6093	-0.0207	21.495
215.312	949.37	-0.6096	-0.0208	21.489
215.428	949.37	-0.6101	-0.0208	21.480
215.545	949.37	-0.6110	-0.0208	21.466
215.662	949.37	-0.6119	-0.0208	21.456
215.778	949.37	-0.6132	-0.0209	21.448
215.895	949.37	-0.6138	-0.0209	21.443
216.012	949.37	-0.6152	-0.0209	21.439
216.128	949.37	-0.6162	-0.0210	21.436
216.245	949.37	-0.6173	-0.0210	21.438
216.362	949.37	-0.6184	-0.0211	21.437
216.478	949.37	-0.6197	-0.0211	21.436
216.595	949.37	-0.6201	-0.0211	21.437
216.712	949.37	-0.6218	-0.0212	21.437
216.828	949.37	-0.6230	-0.0212	21.430
216.945	949.37	-0.6244	-0.0213	21.419
217.062	949.37	-0.6253	-0.0213	21.426
217.178	949.37	-0.6266	-0.0213	21.428
217.295	949.37	-0.6278	-0.0214	21.425
217.412	949.37	-0.6285	-0.0214	21.417
217.528	949.37	-0.6295	-0.0214	21.418
217.645	949.37	-0.6307	-0.0215	21.418
217.762	949.37	-0.6315	-0.0215	21.413
217.878	949.37	-0.6319	-0.0215	21.410
217.995	949.37	-0.6327	-0.0215	21.413
218.112	949.37	-0.6338	-0.0216	21.419
218.228	949.37	-0.6350	-0.0216	21.422
218.345	949.37	-0.6363	-0.0217	21.420
218.462	949.37	-0.6368	-0.0217	21.414
218.578	949.37	-0.6378	-0.0217	21.415
218.695	949.37	-0.6392	-0.0218	21.428
218.812	949.37	-0.6405	-0.0218	21.427
218.928	949.37	-0.6410	-0.0218	21.428
219.045	949.37	-0.6421	-0.0219	21.420
219.162	949.37	-0.6430	-0.0219	21.424
219.278	949.37	-0.6440	-0.0219	21.426
219.395	949.37	-0.6452	-0.0220	21.427
219.512	949.37	-0.6458	-0.0220	21.428
219.628	949.37	-0.6468	-0.0220	21.438
219.745	949.37	-0.6474	-0.0220	21.447
219.862	949.37	-0.6480	-0.0221	21.446
219.978	949.37	-0.6493	-0.0221	21.447
220.095	949.37	-0.6506	-0.0221	21.452
220.212	949.37	-0.6516	-0.0222	21.455
220.328	949.37	-0.6526	-0.0222	21.460
220.445	949.37	-0.6537	-0.0223	21.472
220.562	949.37	-0.6553	-0.0223	21.480
220.678	949.37	-0.6565	-0.0224	21.483
220.795	949.37	-0.6574	-0.0224	21.484
220.912	949.37	-0.6580	-0.0224	21.486
221.028	949.37	-0.6597	-0.0225	21.483
221.145	949.37	-0.6606	-0.0225	21.493
221.262	949.37	-0.6622	-0.0225	21.505
221.378	949.37	-0.6635	-0.0226	21.508
221.495	949.37	-0.6644	-0.0226	21.510
221.612	949.37	-0.6652	-0.0226	21.518
221.728	949.37	-0.6659	-0.0227	21.517
221.845	949.37	-0.6669	-0.0227	21.519
221.962	949.37	-0.6679	-0.0227	21.536
222.078	949.37	-0.6689	-0.0228	21.548
222.195	949.37	-0.6698	-0.0228	21.560
222.312	949.37	-0.6705	-0.0228	21.562
222.428	949.37	-0.6716	-0.0229	21.567
222.545	949.37	-0.6725	-0.0229	21.576
222.662	949.37	-0.6738	-0.0229	21.588
222.778	949.37	-0.6752	-0.0230	21.596
222.895	949.37	-0.6763	-0.0230	21.601
223.012	949.37	-0.6776	-0.0231	21.606
223.128	949.37	-0.6787	-0.0231	21.606
223.245	949.37	-0.6792	-0.0231	21.612
223.362	949.37	-0.6805	-0.0232	21.619
223.478	949.37	-0.6813	-0.0232	21.631
223.595	949.37	-0.6820	-0.0232	21.642
223.712	949.37	-0.6834	-0.0233	21.653
223.828	949.37	-0.6845	-0.0233	21.662
223.945	949.37	-0.6858	-0.0234	21.676
224.062	949.37	-0.6873	-0.0234	21.697
224.178	949.37	-0.6885	-0.0234	21.715
224.295	949.37	-0.6890	-0.0235	21.716
224.412	949.37	-0.6905	-0.0235	21.723
224.528	949.37	-0.6916	-0.0235	21.735
224.645	949.37	-0.6923	-0.0236	21.737
224.762	949.37	-0.6932	-0.0236	21.733
224.878	949.37	-0.6941	-0.0236	21.725
224.995	949.37	-0.6949	-0.0237	21.732
225.112	949.37	-0.6957	-0.0237	21.729
225.228	949.37	-0.6969	-0.0237	21.730
225.345	949.37	-0.6978	-0.0238	21.740
225.462	949.37	-0.6989	-0.0238	21.751
225.578	949.37	-0.7002	-0.0238	21.764
225.695	949.37	-0.7013	-0.0239	21.783
225.812	949.37	-0.7021	-0.0239	21.796
225.928	949.37	-0.7030	-0.0239	21.803
226.045	949.37	-0.7041	-0.0240	21.808
226.162	949.37	-0.7047	-0.0240	21.813
226.278	949.37	-0.7058	-0.0240	21.813
226.395	949.37	-0.7068	-0.0241	21.811
226.512	949.37	-0.7075	-0.0241	21.820
226.628	949.37	-0.7089	-0.0241	21.831
226.745	949.37	-0.7100	-0.0242	21.847
226.862	949.37	-0.7112	-0.0242	21.855
226.978	949.37	-0.7123	-0.0243	21.865
227.095	949.37	-0.7134	-0.0243	21.879
227.212	949.37	-0.7142	-0.0243	21.885
227.328	949.37	-0.7155	-0.0244	21.891
227.445	949.37	-0.7162	-0.0244	21.891
227.562	949.37	-0.7171	-0.0244	21.899
227.678	949.37	-0.7177	-0.0244	21.904
227.795	949.37	-0.7185	-0.0245	21.920
227.912	949.37	-0.7194	-0.0245	21.933
228.028	949.37	-0.7208	-0.0245	21.943
228.145	949.37	-0.7226	-0.0246	21.948
228.262	949.37	-0.7241	-0.0247	21.959
228.378	949.37	-0.7250	-0.0247	21.979
228.495	949.37	-0.7254	-0.0247	21.997
228.612	949.37	-0.7265	-0.0247	22.007
228.728	949.37	-0.7280	-0.0248	22.022
228.845	949.37	-0.7289	-0.0248	22.012
228.962	949.37	-0.7298	-0.0248	22.008
229.078	949.37	-0.7306	-0.0249	22.016
229.195	949.37	-0.7317	-0.0249	22.028
229.312	949.37	-0.7329	-0.0250	22.039
229.428	949.37	-0.7341	-0.0250	22.052
229.545	949.37	-0.7355	-0.0250	22.063
229.662	949.37	-0.7362	-0.0251	22.069
229.778	949.37	-0.7372	-0.0251	22.068
229.895	949.37	-0.7384	-0.0251	22.075
230.012	949.38	-0.7395	-0.0252	22.082
230.128	949.37	-0.7406	-0.0252	22.090
230.245		-0.7415	-0.0252
230.253		-0.7415	-0.0252